File: data/TGA/archived/ExpDat_2024_03_12_PS_ULINE_350C_isotherm_1pt_min_S.csv
#EXPORTTYPE:                 ,DATA SINGLE
#FILE:                       ,2024_03_12_PS_ULINE_350C_isotherm_1pt_min_SCB_with_100C_stabilization.ngb-ss5
#FORMAT:                     ,NETZSCH5
#FTYPE:                      ,ANSI
#IDENTITY:                   ,styrofoam
#DECIMAL:                    ,POINT
#SEPARATOR:                  ,COMMA
#MTYPE:                      ,TG
#INSTRUMENT:                 ,NETZSCH STA 449F5
#PROJECT:                    ,005a-E
#DATE/TIME:                  ,3/12/2024 11:20:11 AM (UTC-4)
#CORR. FILE:                 ,
#TEMPCAL:                    ,28-06-2023 13:26
#SENSITIVITY:                ,28-06-2023 13:53
#LABORATORY:                 ,Tran/AAG
#OPERATOR:                   ,Stanley
#REMARK:                     ,
#SAMPLE:                     ,ULINE_styrofoam_peanuts
#SAMPLE MASS /mg:            ,5.47
#MATERIAL:                   ,
#REFERENCE:                  ,
#REFERENCE MASS /mg:         ,0
#TYPE OF CRUCIBLE:           ,Al2O3 85 µl, open
#SAMPLE CRUCIBLE MASS /mg:   ,0
#REFERENCE CRUCIBLE MASS /mg:,0
#DSC RANGE /µV:              ,5000
#TG RANGE /mg:               ,35000
#TAU-R:                      ,---
#CORR. CODE:                 ,000
#EXO:                        ,-1
#RANGE:                      ,30°C....800°C/0.0....10.0K/min
#SEGMENT:                    ,S1-5/5
#SEG. 1:                     ,30°C/10.0(K/min)/100°C
#SEG. 2:                     ,100°C/00:10/100°C
#SEG. 3:                     ,100°C/10.0(K/min)/350°C
#SEG. 4:                     ,350°C/04:00/350°C
#SEG. 5:                     ,350°C/10.0(K/min)/800°C

##Temp./°C,Time/min,Mass/%,Segment
 26.64900,  0.00000,    100,1
 27.22800,  0.30000,     99.83656,1
 27.86200,  0.60000,     99.91718,1
 28.69100,  0.90000,    100.252,1
 29.78400,  1.20000,    100.689,1
 31.16400,  1.50000,    101.129,1
 32.75400,  1.80000,     96.42194,1
 34.53900,  2.10000,     97.16033,1
 36.48200,  2.40000,     97.46015,1
 38.61200,  2.70000,     97.69799,1
 40.86600,  3.00000,     97.92340,1
 43.28600,  3.30000,     98.11371,1
 45.86900,  3.60000,     98.32468,1
 48.61000,  3.90000,     98.55210,1
 51.53100,  4.20000,     98.80859,1
 54.62100,  4.50000,     99.01335,1
 57.85100,  4.80000,     99.19122,1
 61.21600,  5.10000,     99.37952,1
 64.65700,  5.40000,     99.52431,1
 68.20400,  5.70000,     99.64826,1
 71.82100,  6.00000,     99.79927,1
 75.49600,  6.30000,     99.90896,1
 79.21700,  6.60000,     99.98537,1
 82.99900,  6.90000,    100.093,1
 86.74477,  7.20000,    100.162,2
 90.16005,  7.50000,    100.079,2
 93.18542,  7.80000,     99.87474,2
 95.77847,  8.10000,     99.60610,2
 97.96931,  8.40000,     99.28109,2
 99.80690,  8.70000,     98.97224,2
101.394,  9.00000,     98.68776,2
102.813,  9.30000,     98.48306,2
104.086,  9.60000,     98.33017,2
105.233,  9.90000,     98.18246,2
106.291, 10.20000,     98.03037,2
107.203, 10.50000,     97.87431,2
107.966, 10.80000,     97.71803,2
108.618, 11.10000,     97.55835,2
109.11, 11.40000,     97.33502,2
109.475, 11.70000,     97.18054,2
109.755, 12.00000,     96.98713,2
109.904, 12.30000,     96.83554,2
110.003, 12.60000,     96.68957,2
110.005, 12.90000,     96.54609,2
109.945, 13.20000,     96.38891,2
109.836, 13.50000,     96.27746,2
109.683, 13.80000,     96.11849,2
109.472, 14.10000,     96.01401,2
109.231, 14.40000,     95.88502,2
108.969, 14.70000,     95.77732,2
108.666, 15.00000,     95.64218,2
108.333, 15.30000,     95.51456,2
108.001, 15.60000,     95.41256,2
107.643, 15.90000,     95.33919,2
107.29, 16.20000,     95.21878,2
106.92, 16.50000,     95.15387,2
106.543, 16.80000,     95.01620,2
106.174, 17.10000,     94.96179,3
105.946, 17.40000,     94.96179,3
106.105, 17.70000,     95.18519,3
106.725, 18.00000,     95.54095,3
107.76, 18.30000,     95.94205,3
109.116, 18.60000,     96.29159,3
110.712, 18.90000,     96.59781,3
112.439, 19.20000,     96.81079,3
114.316, 19.50000,     96.98245,3
116.331, 19.80000,     97.15814,3
118.529, 20.10000,     97.34223,3
120.935, 20.40000,     97.50768,3
123.521, 20.70000,     97.73309,3
126.289, 21.00000,     97.89250,3
129.246, 21.30000,     98.10750,3
132.345, 21.60000,     98.21718,3
135.543, 21.90000,     98.39086,3
138.836, 22.20000,     98.52322,3
142.224, 22.50000,     98.60183,3
145.668, 22.80000,     98.67623,3
149.158, 23.10000,     98.77148,3
152.701, 23.40000,     98.85210,3
156.247, 23.70000,     98.90165,3
159.853, 24.00000,     98.95137,3
163.467, 24.30000,     99.00091,3
167.063, 24.60000,     99.02578,3
170.664, 24.90000,     99.07550,3
174.251, 25.20000,     99.10018,3
177.819, 25.50000,     99.12505,3
181.39, 25.80000,     99.14991,3
184.93, 26.10000,     99.15612,3
188.457, 26.40000,     99.18099,3
191.945, 26.70000,     99.18099,3
195.419, 27.00000,     99.18099,3
198.849, 27.30000,     99.23053,3
202.269, 27.60000,     99.23053,3
205.651, 27.90000,     99.23254,3
208.992, 28.20000,     99.19744,3
212.31, 28.50000,     99.25941,3
215.606, 28.80000,     99.25941,3
218.872, 29.10000,     99.28428,3
222.108, 29.40000,     99.28428,3
225.324, 29.70000,     99.28428,3
228.52, 30.00000,     99.30914,3
231.692, 30.30000,     99.30914,3
234.84, 30.60000,     99.30914,3
237.976, 30.90000,     99.30914,3
241.087, 31.20000,     99.35868,3
244.191, 31.50000,     99.34022,3
247.276, 31.80000,     99.36490,3
250.348, 32.10000,     99.36490,3
253.406, 32.40000,     99.38355,3
256.461, 32.70000,     99.40841,3
259.505, 33.00000,     99.38355,3
262.532, 33.30000,     99.37112,3
265.56, 33.60000,     99.35868,3
268.58, 33.90000,     99.35868,3
271.591, 34.20000,     99.38574,3
274.579, 34.50000,     99.34223,3
277.601, 34.80000,     99.39397,3
280.592, 35.10000,     99.34424,3
283.574, 35.40000,     99.39397,3
286.553, 35.70000,     99.35667,3
289.546, 36.00000,     99.37331,3
292.53, 36.30000,     99.39177,3
295.499, 36.60000,     99.36709,3
298.479, 36.90000,     99.36490,3
301.454, 37.20000,     99.34022,3
304.421, 37.50000,     99.34022,3
307.392, 37.80000,     99.29049,3
310.353, 38.10000,     99.23876,3
313.329, 38.40000,     99.18501,3
316.296, 38.70000,     99.10238,3
319.269, 39.00000,     98.98446,3
322.237, 39.30000,     98.85411,3
325.204, 39.60000,     98.64113,3
328.166, 39.90000,     98.44461,3
331.125, 40.20000,     98.18410,3
334.102, 40.50000,     97.91938,3
337.068, 40.80000,     97.59671,3
340.018, 41.10000,     97.21207,3
342.987, 41.40000,     96.77349,3
345.953, 41.70000,     96.33912,3
348.912, 42.00000,     95.81188,4
351.249, 42.30000,     95.20384,4
352.274, 42.60000,     94.43236,4
352.664, 42.90000,     93.67751,4
352.885, 43.20000,     92.84808,4
353.202, 43.50000,     92.07038,4
353.628, 43.80000,     91.30530,4
354.077, 44.10000,     90.48007,4
354.424, 44.40000,     89.68592,4
354.635, 44.70000,     88.87093,4
354.716, 45.00000,     88.07477,4
354.695, 45.30000,     87.25155,4
354.623, 45.60000,     86.45941,4
354.529, 45.90000,     85.71079,4
354.407, 46.20000,     84.92285,4
354.296, 46.50000,     84.18245,4
354.134, 46.80000,     83.48336,4
353.989, 47.10000,     82.81115,4
353.823, 47.40000,     82.16380,4
353.652, 47.70000,     81.52468,4
353.476, 48.00000,     80.87532,4
353.302, 48.30000,     80.20110,4
353.129, 48.60000,     79.50823,4
352.962, 48.90000,     78.87532,4
352.812, 49.20000,     78.19488,4
352.649, 49.50000,     77.57459,4
352.495, 49.80000,     77.02651,4
352.353, 50.10000,     76.47002,4
352.218, 50.40000,     75.88483,4
352.075, 50.70000,     75.34296,4
351.942, 51.00000,     74.76179,4
351.833, 51.30000,     74.21572,4
351.715, 51.60000,     73.73803,4
351.602, 51.90000,     73.23346,4
351.523, 52.20000,     72.74113,4
351.406, 52.50000,     72.21371,4
351.319, 52.80000,     71.77952,4
351.233, 53.10000,     71.16929,4
351.153, 53.40000,     70.69360,4
351.076, 53.70000,     70.24899,4
351.009, 54.00000,     69.78574,4
350.95, 54.30000,     69.32029,4
350.889, 54.60000,     68.91079,4
350.83, 54.90000,     68.46197,4
350.777, 55.20000,     68.08154,4
350.725, 55.50000,     67.60786,4
350.678, 55.80000,     67.23144,4
350.635, 56.10000,     66.77642,4
350.594, 56.40000,     66.38154,4
350.551, 56.70000,     65.98227,4
350.525, 57.00000,     65.60183,4
350.483, 57.30000,     65.20878,4
350.448, 57.60000,     64.76618,4
350.438, 57.90000,     64.42706,4
350.399, 58.20000,     64.04442,4
350.37, 58.50000,     63.69909,4
350.346, 58.80000,     63.29580,4
350.333, 59.10000,     62.98336,4
350.306, 59.40000,     62.60073,4
350.289, 59.70000,     62.23053,4
350.273, 60.00000,     61.89561,4
350.256, 60.30000,     61.52322,4
350.248, 60.60000,     61.20475,4
350.233, 60.90000,     60.87587,4
350.205, 61.20000,     60.52431,4
350.2, 61.50000,     60.18099,4
350.186, 61.80000,     59.81499,4
350.175, 62.10000,     59.53163,4
350.167, 62.40000,     59.23181,4
350.16, 62.70000,     58.91938,4
350.147, 63.00000,     58.57824,4
350.139, 63.30000,     58.26179,4
350.116, 63.60000,     57.93912,4
350.13, 63.90000,     57.63090,4
350.113, 64.20000,     57.34552,4
350.117, 64.50000,     57.02084,4
350.116, 64.80000,     56.71883,4
350.106, 65.10000,     56.43144,4
350.11, 65.40000,     56.11700,4
350.091, 65.70000,     55.84406,4
350.08, 66.00000,     55.55027,4
350.079, 66.30000,     55.26088,4
350.082, 66.60000,     54.97130,4
350.07, 66.90000,     54.68793,4
350.069, 67.20000,     54.41700,4
350.066, 67.50000,     54.13565,4
350.073, 67.80000,     53.87916,4
350.069, 68.10000,     53.62066,4
350.066, 68.40000,     53.31042,4
350.056, 68.70000,     53.05192,4
350.06, 69.00000,     52.78519,4
350.055, 69.30000,     52.56179,4
350.057, 69.60000,     52.26399,4
350.047, 69.90000,     51.98684,4
350.051, 70.20000,     51.75722,4
350.052, 70.50000,     51.50494,4
350.038, 70.80000,     51.28154,4
350.045, 71.10000,     50.98172,4
350.036, 71.40000,     50.74388,4
350.042, 71.70000,     50.47715,4
350.034, 72.00000,     50.26399,4
350.041, 72.30000,     49.98282,4
350.027, 72.60000,     49.75941,4
350.031, 72.90000,     49.51536,4
350.031, 73.20000,     49.32102,4
350.024, 73.50000,     49.04790,4
350.027, 73.80000,     48.81005,4
350.028, 74.10000,     48.58464,4
350.03, 74.40000,     48.33656,4
350.029, 74.70000,     48.14826,4
350.034, 75.00000,     47.89598,4
350.037, 75.30000,     47.63748,4
350.032, 75.60000,     47.42230,4
350.026, 75.90000,     47.20731,4
350.026, 76.20000,     46.97148,4
350.034, 76.50000,     46.76472,4
350.03, 76.80000,     46.55777,4
350.016, 77.10000,     46.30969,4
350.026, 77.40000,     46.06362,4
350.013, 77.70000,     45.90439,4
350.01, 78.00000,     45.66654,4
350.016, 78.30000,     45.46179,4
350.019, 78.60000,     45.22998,4
350.015, 78.90000,     45.00676,4
350.021, 79.20000,     44.78739,4
350.021, 79.50000,     44.55795,4
350.018, 79.80000,     44.38208,4
350.018, 80.10000,     44.17331,4
350.033, 80.40000,     43.97879,4
350.025, 80.70000,     43.77824,4
350.027, 81.00000,     43.55484,4
350.031, 81.30000,     43.36252,4
350.032, 81.60000,     43.16801,4
350.024, 81.90000,     42.95101,4
350.027, 82.20000,     42.73583,4
350.031, 82.50000,     42.55174,4
350.031, 82.80000,     42.26435,4
350.021, 83.10000,     42.10293,4
350.025, 83.40000,     41.91883,4
350.033, 83.70000,     41.71408,4
350.027, 84.00000,     41.54040,4
350.033, 84.30000,     41.34607,4
350.031, 84.60000,     41.18464,4
350.037, 84.90000,     40.96746,4
350.032, 85.20000,     40.78757,4
350.035, 85.50000,     40.57038,4
350.037, 85.80000,     40.41316,4
350.041, 86.10000,     40.19196,4
350.035, 86.40000,     40.02651,4
350.044, 86.70000,     39.89415,4
350.036, 87.00000,     39.66874,4
350.031, 87.30000,     39.47422,4
350.033, 87.60000,     39.28611,4
350.034, 87.90000,     39.12267,4
350.042, 88.20000,     38.95722,4
350.036, 88.50000,     38.73601,4
350.036, 88.80000,     38.57879,4
350.046, 89.10000,     38.41536,4
350.033, 89.40000,     38.21883,4
350.027, 89.70000,     38.04314,4
350.026, 90.00000,     37.85905,4
350.025, 90.30000,     37.68318,4
350.021, 90.60000,     37.52815,4
350.02, 90.90000,     37.34205,4
350.029, 91.20000,     37.17441,4
350.018, 91.50000,     37.00896,4
350.028, 91.80000,     36.86636,4
350.026, 92.10000,     36.67404,4
350.031, 92.40000,     36.49397,4
350.028, 92.70000,     36.30987,4
350.02, 93.00000,     36.16929,4
350.03, 93.30000,     36.00804,4
350.033, 93.60000,     35.81152,4
350.021, 93.90000,     35.66271,4
350.027, 94.20000,     35.51170,4
350.031, 94.50000,     35.31718,4
350.024, 94.80000,     35.16216,4
350.022, 95.10000,     35.00695,4
350.018, 95.40000,     34.81883,4
350.033, 95.70000,     34.69049,4
350.03, 96.00000,     34.53547,4
350.032, 96.30000,     34.38026,4
350.038, 96.60000,     34.19214,4
350.029, 96.90000,     34.03291,4
350.031, 97.20000,     33.87770,4
350.038, 97.50000,     33.73510,4
350.026, 97.80000,     33.56124,4
350.029, 98.10000,     33.41042,4
350.026, 98.40000,     33.27386,4
350.019, 98.70000,     33.11042,4
350.037, 99.00000,     32.94296,4
350.031, 99.30000,     32.81060,4
350.039, 99.60000,     32.65137,4
350.038, 99.90000,     32.50238,4
350.027,100.2,     32.33291,4
350.032,100.5,     32.19835,4
350.024,100.8,     32.04333,4
350.023,101.1,     31.89031,4
350.037,101.4,     31.75576,4
350.032,101.7,     31.59653,4
350.04,102,     31.46837,4
350.033,102.3,     31.30695,4
350.034,102.6,     31.16837,4
350.037,102.9,     31.01956,4
350.047,103.2,     30.88720,4
350.039,103.5,     30.74644,4
350.041,103.8,     30.58720,4
350.031,104.1,     30.44863,4
350.032,104.4,     30.29159,4
350.036,104.7,     30.13638,4
350.028,105,     30.01444,4
350.043,105.3,     29.89232,4
350.037,105.6,     29.73931,4
350.024,105.9,     29.61938,4
350.018,106.2,     29.46015,4
350.032,106.5,     29.35265,4
350.025,106.8,     29.22852,4
350.027,107.1,     29.07331,4
350.033,107.4,     28.94516,4
350.034,107.7,     28.78592,4
350.029,108,     28.67824,4
350.032,108.3,     28.53144,4
350.035,108.6,     28.40329,4
350.031,108.9,     28.26051,4
350.043,109.2,     28.13857,4
350.037,109.5,     28.01243,4
350.031,109.8,     27.88410,4
350.035,110.1,     27.74351,4
350.04,110.4,     27.60073,4
350.039,110.7,     27.49122,4
350.038,111,     27.37130,4
350.026,111.3,     27.20585,4
350.029,111.6,     27.07971,4
350.036,111.9,     26.99269,4
350.035,112.2,     26.85832,4
350.027,112.5,     26.72797,4
350.033,112.8,     26.60402,4
350.029,113.1,     26.47770,4
350.021,113.4,     26.35777,4
350.036,113.7,     26.25229,4
350.034,114,     26.13035,4
350.039,114.3,     26.00622,4
350.021,114.6,     25.89250,4
350.037,114.9,     25.76837,4
350.034,115.2,     25.64223,4
350.043,115.5,     25.53254,4
350.031,115.8,     25.35686,4
350.031,116.1,     25.22852,4
350.02,116.4,     25.12925,4
350.02,116.7,     25.02998,4
350.036,117,     24.90603,4
350.032,117.3,     24.78812,4
350.043,117.6,     24.68263,4
350.036,117.9,     24.55649,4
350.032,118.2,     24.44680,4
350.035,118.5,     24.34552,4
350.041,118.8,     24.21938,4
350.036,119.1,     24.12011,4
350.036,119.4,     23.98154,4
350.027,119.7,     23.87806,4
350.031,120,     23.79744,4
350.036,120.3,     23.66709,4
350.016,120.6,     23.57203,4
350.034,120.9,     23.47057,4
350.029,121.2,     23.34241,4
350.028,121.5,     23.23894,4
350.023,121.8,     23.13967,4
350.029,122.1,     23.05704,4
350.024,122.4,     22.94735,4
350.024,122.7,     22.83784,4
350.026,123,     22.71371,4
350.025,123.3,     22.62066,4
350.02,123.6,     22.52139,4
350.033,123.9,     22.42212,4
350.016,124.2,     22.28757,4
350.013,124.5,     22.20073,4
350.01,124.8,     22.09122,4
350.017,125.1,     21.98775,4
350.015,125.4,     21.89269,4
350.021,125.7,     21.77477,4
350.022,126,     21.68574,4
350.029,126.3,     21.56161,4
350.029,126.6,     21.48720,4
350.022,126.9,     21.38592,4
350.027,127.2,     21.27843,4
350.027,127.5,     21.17495,4
350.032,127.8,     21.07569,4
350.034,128.1,     20.97441,4
350.034,128.4,     20.89982,4
350.025,128.7,     20.77367,4
350.024,129,     20.69726,4
350.03,129.3,     20.59799,4
350.029,129.6,     20.49872,4
350.027,129.9,     20.39324,4
350.025,130.2,     20.28976,4
350.019,130.5,     20.21536,4
350.017,130.8,     20.11188,4
350.029,131.1,     20.03748,4
350.027,131.4,     19.91335,4
350.024,131.7,     19.83675,4
350.026,132,     19.73346,4
350.028,132.3,     19.65484,4
350.023,132.6,     19.55137,4
350.013,132.9,     19.46453,4
350.024,133.2,     19.35704,4
350.016,133.5,     19.29707,4
350.034,133.8,     19.19360,4
350.024,134.1,     19.11920,4
350.02,134.4,     19.01993,4
350.026,134.7,     18.91645,4
350.036,135,     18.84205,4
350.02,135.3,     18.76764,4
350.024,135.6,     18.66417,4
350.02,135.9,     18.56490,4
350.024,136.2,     18.48629,4
350.029,136.5,     18.36435,4
350.032,136.8,     18.30640,4
350.02,137.1,     18.21335,4
350.029,137.4,     18.13053,4
350.022,137.7,     18.02505,4
350.009,138,     17.94863,4
350.016,138.3,     17.87404,4
350.02,138.6,     17.77477,4
350.023,138.9,     17.70037,4
350.036,139.2,     17.57623,4
350.029,139.5,     17.52669,4
350.031,139.8,     17.45009,4
350.032,140.1,     17.34461,4
350.022,140.4,     17.26819,4
350.022,140.7,     17.19360,4
350.022,141,     17.11718,4
350.024,141.3,     17.04278,4
350.026,141.6,     16.91865,4
350.025,141.9,     16.86892,4
350.026,142.2,     16.79452,4
350.023,142.5,     16.69104,4
350.03,142.8,     16.62285,4
350.027,143.1,     16.54845,4
350.036,143.4,     16.47386,4
350.044,143.7,     16.37459,4
350.028,144,     16.27532,4
350.036,144.3,     16.22377,4
350.03,144.6,     16.14516,4
350.022,144.9,     16.07057,4
350.027,145.2,     15.97130,4
350.024,145.5,     15.89488,4
350.03,145.8,     15.82651,4
350.023,146.1,     15.74388,4
350.03,146.4,     15.66728,4
350.018,146.7,     15.59287,4
350.029,147,     15.51846,4
350.022,147.3,     15.44406,4
350.041,147.6,     15.33638,4
350.028,147.9,     15.25777,4
350.031,148.2,     15.18336,4
350.038,148.5,     15.13382,4
350.029,148.8,     15.05101,4
350.032,149.1,     14.94552,4
350.036,149.4,     14.89598,4
350.02,149.7,     14.82559,4
350.026,150,     14.77185,4
350.021,150.3,     14.67258,4
350.019,150.6,     14.61463,4
350.037,150.9,     14.54022,4
350.037,151.2,     14.45338,4
350.026,151.5,     14.38720,4
350.034,151.8,     14.32925,4
350.038,152.1,     14.25484,4
350.052,152.4,     14.18026,4
350.047,152.7,     14.10585,4
350.043,153,     14.00238,4
350.035,153.3,     13.96929,4
350.047,153.6,     13.89909,4
350.03,153.9,     13.83912,4
350.037,154.2,     13.76453,4
350.042,154.5,     13.69013,4
350.036,154.8,     13.61572,4
350.033,155.1,     13.55356,4
350.03,155.4,     13.46271,4
350.032,155.7,     13.40896,4
350.029,156,     13.33437,4
350.028,156.3,     13.25996,4
350.029,156.6,     13.20420,4
350.015,156.9,     13.13181,4
350.014,157.2,     13.07587,4
350.021,157.5,     13.00768,4
350.011,157.8,     12.92706,4
350.026,158.1,     12.90219,4
350.034,158.4,     12.81316,4
350.026,158.7,     12.75119,4
350.017,159,     12.67678,4
350.022,159.3,     12.62706,4
350.019,159.6,     12.55265,4
350.019,159.9,     12.50293,4
350.025,160.2,     12.42852,4
350.022,160.5,     12.34991,4
350.02,160.8,     12.30037,4
350.027,161.1,     12.22596,4
350.018,161.4,     12.17623,4
350.026,161.7,     12.12651,4
350.023,162,     12.07276,4
350.032,162.3,     11.99214,4
350.032,162.6,     11.94881,4
350.025,162.9,     11.84735,4
350.025,163.2,     11.79781,4
350.029,163.5,     11.74406,4
350.021,163.8,     11.66947,4
350.029,164.1,     11.58885,4
350.034,164.4,     11.53090,4
350.024,164.7,     11.45448,4
350.022,165,     11.40475,4
350.037,165.3,     11.35521,4
350.026,165.6,     11.30548,4
350.028,165.9,     11.25795,4
350.034,166.2,     11.19598,4
350.023,166.5,     11.13382,4
350.026,166.8,     11.05941,4
350.03,167.1,     11.00969,4
350.037,167.4,     10.96015,4
350.024,167.7,     10.94351,4
350.029,168,     10.83803,4
350.038,168.3,     10.78848,4
350.034,168.6,     10.73876,4
350.031,168.9,     10.66435,4
350.03,169.2,     10.63949,4
350.032,169.5,     10.56508,4
350.032,169.8,     10.52176,4
350.036,170.1,     10.44095,4
350.021,170.4,     10.39141,4
350.031,170.7,     10.33967,4
350.02,171,     10.28793,4
350.023,171.3,     10.21353,4
350.021,171.6,     10.18867,4
350.026,171.9,     10.11426,4
350.011,172.2,     10.06874,4
350.024,172.5,     10.01079,4
350.024,172.8,      9.96124,4
350.02,173.1,      9.91152,4
350.02,173.4,      9.84132,4
350.014,173.7,      9.78537,4
350.019,174,      9.75649,4
350.033,174.3,      9.67367,4
350.018,174.6,      9.62194,4
350.029,174.9,      9.59726,4
350.021,175.2,      9.54132,4
350.026,175.5,      9.49799,4
350.025,175.8,      9.44826,4
350.021,176.1,      9.36965,4
350.015,176.4,      9.33876,4
350.016,176.7,      9.27038,4
350.026,177,      9.22084,4
350.013,177.3,      9.17112,4
350.017,177.6,      9.14625,4
350.022,177.9,      9.09470,4
350.029,178.2,      9.04497,4
350.025,178.5,      8.99543,4
350.032,178.8,      8.94570,4
350.029,179.1,      8.86929,4
350.024,179.4,      8.81536,4
350.029,179.7,      8.80293,4
350.034,180,      8.74095,4
350.037,180.3,      8.67678,4
350.033,180.6,      8.62724,4
350.027,180.9,      8.60238,4
350.034,181.2,      8.53199,4
350.03,181.5,      8.47623,4
350.031,181.8,      8.47422,4
350.044,182.1,      8.39762,4
350.038,182.4,      8.36051,4
350.031,182.7,      8.31079,4
350.029,183,      8.28592,4
350.035,183.3,      8.21773,4
350.018,183.6,      8.18885,4
350.01,183.9,      8.13912,4
350.022,184.2,      8.08958,4
350.026,184.5,      8.03565,4
350.036,184.8,      7.98611,4
350.022,185.1,      7.95704,4
350.033,185.4,      7.88885,4
350.025,185.7,      7.85777,4
350.024,186,      7.80823,4
350.026,186.3,      7.74004,4
350.025,186.6,      7.72139,4
350.025,186.9,      7.66965,4
350.02,187.2,      7.64077,4
350.016,187.5,      7.61389,4
350.017,187.8,      7.54351,4
350.026,188.1,      7.48355,4
350.025,188.4,      7.45868,4
350.017,188.7,      7.40914,4
350.025,189,      7.35941,4
350.027,189.3,      7.35320,4
350.025,189.6,      7.27660,4
350.031,189.9,      7.22706,4
350.033,190.2,      7.17733,4
350.031,190.5,      7.17331,4
350.033,190.8,      7.12157,4
350.034,191.1,      7.06782,4
350.034,191.4,      7.01810,4
350.032,191.7,      6.96856,4
350.026,192,      6.94369,4
350.019,192.3,      6.91883,4
350.015,192.6,      6.87130,4
350.023,192.9,      6.80932,4
350.023,193.2,      6.79689,4
350.018,193.5,      6.77203,4
350.021,193.8,      6.71627,4
350.024,194.1,      6.67276,4
350.017,194.4,      6.64790,4
350.031,194.7,      6.59835,4
350.022,195,      6.54241,4
350.018,195.3,      6.53620,4
350.024,195.6,      6.46179,4
350.021,195.9,      6.42468,4
350.029,196.2,      6.41225,4
350.026,196.5,      6.35009,4
350.017,196.8,      6.30676,4
350.016,197.1,      6.28190,4
350.026,197.4,      6.23218,4
350.026,197.7,      6.18062,4
350.027,198,      6.10603,4
350.019,198.3,      6.09159,4
350.018,198.6,      6.04607,4
350.027,198.9,      5.98812,4
350.032,199.2,      5.98812,4
350.019,199.5,      5.93857,4
350.032,199.8,      5.93857,4
350.031,200.1,      5.88684,4
350.019,200.4,      5.87239,4
350.024,200.7,      5.81664,4
350.028,201,      5.79177,4
350.036,201.3,      5.76691,4
350.029,201.6,      5.71718,4
350.037,201.9,      5.69250,4
350.03,202.2,      5.64278,4
350.04,202.5,      5.61792,4
350.034,202.8,      5.59324,4
350.037,203.1,      5.54351,4
350.039,203.4,      5.51865,4
350.042,203.7,      5.49177,4
350.037,204,      5.43601,4
350.036,204.3,      5.41115,4
350.031,204.6,      5.37404,4
350.047,204.9,      5.34296,4
350.033,205.2,      5.29324,4
350.035,205.5,      5.26856,4
350.025,205.8,      5.24369,4
350.036,206.1,      5.18775,4
350.022,206.4,      5.16088,4
350.036,206.7,      5.13400,4
350.041,207,      5.10914,4
350.041,207.3,      5.05960,4
350.038,207.6,      5.03473,4
350.031,207.9,      4.98519,4
350.042,208.2,      4.96033,4
350.035,208.5,      4.94168,4
350.039,208.8,      4.90439,4
350.052,209.1,      4.85484,4
350.039,209.4,      4.82797,4
350.045,209.7,      4.79689,4
350.042,210,      4.77002,4
350.05,210.3,      4.74516,4
350.05,210.6,      4.66874,4
350.046,210.9,      4.69360,4
350.043,211.2,      4.64186,4
350.042,211.5,      4.61700,4
350.044,211.8,      4.59214,4
350.045,212.1,      4.54881,4
350.052,212.4,      4.50329,4
350.053,212.7,      4.46600,4
350.047,213,      4.43912,4
350.039,213.3,      4.41426,4
350.044,213.6,      4.37093,4
350.033,213.9,      4.36472,4
350.038,214.2,      4.31499,4
350.031,214.5,      4.31499,4
350.028,214.8,      4.26545,4
350.038,215.1,      4.23638,4
350.026,215.4,      4.21170,4
350.029,215.7,      4.17441,4
350.026,216,      4.15777,4
350.034,216.3,      4.10823,4
350.027,216.6,      4.08336,4
350.03,216.9,      4.03382,4
350.027,217.2,      4.02761,4
350.029,217.5,      3.98208,4
350.028,217.8,      3.98208,4
350.035,218.1,      3.93236,4
350.04,218.4,      3.93236,4
350.019,218.7,      3.87861,4
350.036,219,      3.85375,4
350.03,219.3,      3.81042,4
350.031,219.6,      3.80420,4
350.036,219.9,      3.78556,4
350.028,220.2,      3.75448,4
350.034,220.5,      3.72761,4
350.032,220.8,      3.70073,4
350.043,221.1,      3.67605,4
350.031,221.4,      3.64497,4
350.049,221.7,      3.65320,4
350.041,222,      3.59945,4
350.027,222.3,      3.57459,4
350.035,222.6,      3.52084,4
350.031,222.9,      3.50841,4
350.035,223.2,      3.48154,4
350.043,223.5,      3.45667,4
350.037,223.8,      3.43821,4
350.05,224.1,      3.38026,4
350.036,224.4,      3.35539,4
350.035,224.7,      3.32431,4
350.037,225,      3.30987,4
350.041,225.3,      3.27879,4
350.031,225.6,      3.26033,4
350.038,225.9,      3.23547,4
350.039,226.2,      3.22303,4
350.039,226.5,      3.18574,4
350.028,226.8,      3.19817,4
350.025,227.1,      3.14241,4
350.027,227.4,      3.11755,4
350.027,227.7,      3.09269,4
350.041,228,      3.06801,4
350.031,228.3,      3.04314,4
350.03,228.6,      2.99342,4
350.022,228.9,      2.99342,4
350.03,229.2,      2.94388,4
350.035,229.5,      2.91901,4
350.03,229.8,      2.86929,4
350.036,230.1,      2.86929,4
350.032,230.4,      2.84461,4
350.041,230.7,      2.81773,4
350.035,231,      2.79287,4
350.038,231.3,      2.76801,4
350.038,231.6,      2.76801,4
350.041,231.9,      2.74314,4
350.037,232.2,      2.69360,4
350.033,232.5,      2.69360,4
350.038,232.8,      2.66874,4
350.033,233.1,      2.64186,4
350.032,233.4,      2.62943,4
350.028,233.7,      2.59835,4
350.028,234,      2.59232,4
350.026,234.3,      2.56947,4
350.025,234.6,      2.51993,4
350.024,234.9,      2.50128,4
350.023,235.2,      2.49707,4
350.029,235.5,      2.47221,4
350.023,235.8,      2.44753,4
350.033,236.1,      2.41024,4
350.022,236.4,      2.38336,4
350.028,236.7,      2.36472,4
350.029,237,      2.36472,4
350.022,237.3,      2.33364,4
350.035,237.6,      2.30896,4
350.037,237.9,      2.28410,4
350.039,238.2,      2.26545,4
350.035,238.5,      2.23437,4
350.015,238.8,      2.20969,4
350.028,239.1,      2.23437,4
350.036,239.4,      2.20969,4
350.032,239.7,      2.15996,4
350.026,240,      2.15996,4
350.029,240.3,      2.13510,4
350.027,240.6,      2.11042,4
350.034,240.9,      2.08556,4
350.031,241.2,      2.08556,4
350.037,241.5,      2.04205,4
350.032,241.8,      2.01115,4
350.03,242.1,      2.01115,4
350.036,242.4,      1.98629,4
350.032,242.7,      1.96764,4
350.039,243,      1.94278,4
350.047,243.3,      1.95521,4
350.041,243.6,      1.89104,4
350.038,243.9,      1.89104,4
350.048,244.2,      1.89104,4
350.044,244.5,      1.83949,4
350.047,244.8,      1.84351,4
350.036,245.1,      1.81865,4
350.028,245.4,      1.79397,4
350.031,245.7,      1.76709,4
350.026,246,      1.77952,4
350.028,246.3,      1.73601,4
350.023,246.6,      1.72358,4
350.021,246.9,      1.72358,4
350.024,247.2,      1.67605,4
350.031,247.5,      1.65119,4
350.036,247.8,      1.63254,4
350.035,248.1,      1.62633,4
350.045,248.4,      1.60165,4
350.047,248.7,      1.57678,4
350.039,249,      1.59543,4
350.047,249.3,      1.57057,4
350.04,249.6,      1.54570,4
350.04,249.9,      1.54570,4
350.038,250.2,      1.49616,4
350.039,250.5,      1.48995,4
350.039,250.8,      1.46508,4
350.035,251.1,      1.46508,4
350.038,251.4,      1.44022,4
350.033,251.7,      1.44022,4
350.039,252,      1.43821,4
350.026,252.3,      1.38446,4
350.033,252.6,      1.37203,4
350.028,252.9,      1.33473,4
350.031,253.2,      1.33473,4
350.031,253.5,      1.32029,4
350.037,253.8,      1.30786,4
350.033,254.1,      1.28300,4
350.03,254.4,      1.26453,4
350.042,254.7,      1.27678,4
350.037,255,      1.22724,4
350.048,255.3,      1.22303,4
350.043,255.6,      1.19616,4
350.032,255.9,      1.18995,4
350.042,256.2,      1.16527,4
350.03,256.5,      1.16527,4
350.025,256.8,      1.13419,4
350.029,257.1,      1.14040,4
350.034,257.4,      1.06179,4
350.03,257.7,      1.09287,4
350.031,258,      1.09287,4
350.031,258.3,      1.06801,4
350.028,258.6,      1.04516,4
350.03,258.9,      1.02048,4
350.027,259.2,      0.99561,4
350.018,259.5,      1.00183,4
350.037,259.8,      0.98117,4
350.037,260.1,      0.96874,4
350.03,260.4,      0.91079,4
350.028,260.7,      0.88592,4
350.032,261,      0.88592,4
350.019,261.3,      0.87148,4
350.021,261.6,      0.86527,4
350.029,261.9,      0.86527,4
350.034,262.2,      0.87148,4
350.034,262.5,      0.84662,4
350.027,262.8,      0.84040,4
350.03,263.1,      0.78885,4
350.026,263.4,      0.79086,4
350.038,263.7,      0.76600,4
350.033,264,      0.77221,4
350.029,264.3,      0.75356,4
350.031,264.6,      0.74735,4
350.028,264.9,      0.72267,4
350.035,265.2,      0.72267,4
350.034,265.5,      0.68537,4
350.036,265.8,      0.67294,4
350.035,266.1,      0.67294,4
350.036,266.4,      0.64808,4
350.04,266.7,      0.64808,4
350.028,267,      0.62340,4
350.039,267.3,      0.64186,4
350.032,267.6,      0.59031,4
350.037,267.9,      0.59031,4
350.038,268.2,      0.56325,4
350.042,268.5,      0.56325,4
350.038,268.8,      0.56325,4
350.031,269.1,      0.53857,4
350.041,269.4,      0.51371,4
350.037,269.7,      0.51371,4
350.023,270,      0.48263,4
350.028,270.3,      0.47861,4
350.032,270.6,      0.45375,4
350.028,270.9,      0.47861,4
350.033,271.2,      0.45375,4
350.03,271.5,      0.42888,4
350.033,271.8,      0.42267,4
350.034,272.1,      0.39781,4
350.038,272.4,      0.37313,4
350.035,272.7,      0.37313,4
350.034,273,      0.35448,4
350.034,273.3,      0.35448,4
350.028,273.6,      0.34826,4
350.033,273.9,      0.32340,4
350.032,274.2,      0.29854,4
350.041,274.5,      0.27386,4
350.044,274.8,      0.24899,4
350.03,275.1,      0.22413,4
350.037,275.4,      0.23035,4
350.034,275.7,      0.22413,4
350.032,276,      0.16837,4
350.033,276.3,      0.19726,4
350.044,276.6,      0.17861,4
350.037,276.9,      0.17861,4
350.035,277.2,      0.17239,4
350.041,277.5,      0.14771,4
350.033,277.8,      0.14771,4
350.034,278.1,      0.12285,4
350.038,278.4,      0.14771,4
350.027,278.7,      0.12285,4
350.036,279, 9.798903e-02,4
350.048,279.3, 9.798903e-02,4
350.044,279.6, 5.447898e-02,4
350.034,279.9, 7.934186e-02,4
350.025,280.2, 6.691042e-02,4
350.037,280.5, 1.736746e-02,4
350.025,280.8, 1.736746e-02,4
350.037,281.1,-1.279707e-03,4
350.026,281.4,-1.279707e-03,4
350.034,281.7,-3.235832e-02,4
350.013,282,-2.007163e-02,5
350.654,282.3,-1.000370e-02,5
352.641,282.6, 7.461504e-02,5
355.347,282.9,      0.20463,5
358.105,283.2,      0.31216,5
360.654,283.5,      0.41514,5
363.059,283.8,      0.45662,5
365.491,284.1,      0.46697,5
368.053,284.4,      0.51068,5
370.805,284.7,      0.53811,5
373.71,285,      0.56048,5
376.708,285.3,      0.57747,5
379.752,285.6,      0.60371,5
382.831,285.9,      0.64003,5
385.932,286.2,      0.64002,5
389.04,286.5,      0.62935,5
392.175,286.8,      0.59078,5
395.331,287.1,      0.58886,5
398.494,287.4,      0.55465,5
401.66,287.7,      0.49802,5
404.825,288,      0.42548,5
407.986,288.3,      0.34359,5
411.145,288.6,      0.23091,5
414.306,288.9,      0.16465,5
417.452,289.2, 2.047535e-02,5
420.598,289.5,     -0.10684,5
423.725,289.8,     -0.25608,5
426.847,290.1,     -0.38727,5
429.966,290.4,     -0.54936,5
433.084,290.7,     -0.69923,5
436.176,291,     -0.82828,5
439.277,291.3,     -0.93190,5
442.362,291.6,     -1.06086,5
445.441,291.9,     -1.13993,5
448.522,292.2,     -1.18630,5
451.58,292.5,     -1.25733,5
454.643,292.8,     -1.26369,5
457.699,293.1,     -1.28871,5
460.754,293.4,     -1.28603,5
463.81,293.7,     -1.23633,5
466.847,294,     -1.21365,5
469.888,294.3,     -1.18630,5
472.923,294.6,     -1.09773,5
475.939,294.9,     -1.09051,5
478.975,295.2,     -1.04938,5
481.991,295.5,     -1.01675,5
485.018,295.8,     -0.97540,5
488.031,296.1,     -0.92365,5
491.063,296.4,     -0.90285,5
494.057,296.7,     -0.85013,5
497.068,297,     -0.80289,5
500.085,297.3,     -0.76736,5
503.089,297.6,     -0.72669,5
506.096,297.9,     -0.69364,5
509.086,298.2,     -0.62388,5
512.099,298.5,     -0.59285,5
515.092,298.8,     -0.56979,5
518.099,299.1,     -0.52966,5
521.09,299.4,     -0.49304,5
524.1,299.7,     -0.45749,5
527.101,300,     -0.43675,5
530.086,300.3,     -0.38770,5
533.077,300.6,     -0.36272,5
536.068,300.9,     -0.30788,5
539.08,301.2,     -0.31161,5
542.08,301.5,     -0.25169,5
545.066,301.8,     -0.21624,5
548.073,302.1,     -0.19484,5
551.056,302.4,     -0.17177,5
554.054,302.7,     -0.12907,5
557.037,303,-9.368182e-02,5
560.041,303.3,-6.710273e-02,5
563.031,303.6,-4.458688e-02,5
566.023,303.9,-2.634775e-03,5
569.029,304.2, 5.667937e-03,5
572.026,304.5, 5.216527e-02,5
575.018,304.8, 8.898932e-02,5
578.017,305.1,      0.11563,5
581.011,305.4,      0.13765,5
584.015,305.7,      0.16863,5
586.997,306,      0.21815,5
589.987,306.3,      0.22501,5
593.004,306.6,      0.26868,5
595.992,306.9,      0.28300,5
598.995,307.2,      0.31638,5
601.99,307.5,      0.33881,5
604.985,307.8,      0.34039,5
607.984,308.1,      0.39536,5
610.98,308.4,      0.41473,5
613.973,308.7,      0.45587,5
616.975,309,      0.46404,5
619.983,309.3,      0.47562,5
622.961,309.6,      0.55417,5
625.963,309.9,      0.52510,5
628.96,310.2,      0.58442,5
631.961,310.5,      0.58859,5
634.956,310.8,      0.64435,5
637.96,311.1,      0.64452,5
640.962,311.4,      0.64494,5
643.963,311.7,      0.66917,5
646.956,312,      0.69526,5
649.964,312.3,      0.71891,5
652.96,312.6,      0.73859,5
655.962,312.9,      0.76171,5
658.96,313.2,      0.78802,5
661.96,313.5,      0.82784,5
664.952,313.8,      0.83714,5
667.943,314.1,      0.86117,5
670.937,314.4,      0.88676,5
673.932,314.7,      0.88227,5
676.949,315,      0.91104,5
679.945,315.3,      0.93777,5
682.945,315.6,      0.95986,5
685.945,315.9,      0.97576,5
688.947,316.2,      0.98636,5
691.944,316.5,      0.99807,5
694.945,316.8,      1.04068,5
697.943,317.1,      1.03539,5
700.948,317.4,      1.06514,5
703.952,317.7,      1.10136,5
706.948,318,      1.07715,5
709.944,318.3,      1.13174,5
712.945,318.6,      1.12663,5
715.947,318.9,      1.16987,5
718.954,319.2,      1.15038,5
721.953,319.5,      1.19318,5
724.954,319.8,      1.20109,5
727.945,320.1,      1.22802,5
730.956,320.4,      1.22572,5
733.944,320.7,      1.27395,5
736.951,321,      1.21970,5
739.947,321.3,      1.29564,5
742.954,321.6,      1.31612,5
745.961,321.9,      1.32382,5
748.953,322.2,      1.33971,5
751.961,322.5,      1.35039,5
754.948,322.8,      1.39101,5
757.952,323.1,      1.40123,5
760.963,323.4,      1.43330,5
763.954,323.7,      1.41863,5
766.953,324,      1.45316,5
769.949,324.3,      1.46518,5
772.953,324.6,      1.46743,5
775.95,324.9,      1.48487,5
778.954,325.2,      1.51725,5
781.956,325.5,      1.53002,5
784.947,325.8,      1.54132,5
787.945,326.1,      1.55279,5
790.951,326.4,      1.59145,5
793.953,326.7,      1.59719,5