File: data/TGA/archived/ExpDat_2024_03_11_PS_P40042_Mn_1200_350C_isotherm.csv
#EXPORTTYPE:                 ,DATA SINGLE
#FILE:                       ,2024_03_11_PS_P40042_Mn_1200_350C_isotherm_1pt_min_SCB_with_100C_stabilization.ngb-ss5
#FORMAT:                     ,NETZSCH5
#FTYPE:                      ,ANSI
#IDENTITY:                   ,polystyrene
#DECIMAL:                    ,POINT
#SEPARATOR:                  ,COMMA
#MTYPE:                      ,TG
#INSTRUMENT:                 ,NETZSCH STA 449F5
#PROJECT:                    ,005a-E
#DATE/TIME:                  ,3/11/2024 3:48:32 PM (UTC-4)
#CORR. FILE:                 ,
#TEMPCAL:                    ,28-06-2023 13:26
#SENSITIVITY:                ,28-06-2023 13:53
#LABORATORY:                 ,Tran/AAG
#OPERATOR:                   ,Stanley
#REMARK:                     ,
#SAMPLE:                     ,PS-P40042-1.2K
#SAMPLE MASS /mg:            ,5.58
#MATERIAL:                   ,
#REFERENCE:                  ,
#REFERENCE MASS /mg:         ,0
#TYPE OF CRUCIBLE:           ,Al2O3 85 µl, open
#SAMPLE CRUCIBLE MASS /mg:   ,0
#REFERENCE CRUCIBLE MASS /mg:,0
#DSC RANGE /µV:              ,5000
#TG RANGE /mg:               ,35000
#TAU-R:                      ,---
#CORR. CODE:                 ,000
#EXO:                        ,-1
#RANGE:                      ,30°C....800°C/0.0....10.0K/min
#SEGMENT:                    ,S1-5/5
#SEG. 1:                     ,30°C/10.0(K/min)/100°C
#SEG. 2:                     ,100°C/00:10/100°C
#SEG. 3:                     ,100°C/10.0(K/min)/350°C
#SEG. 4:                     ,350°C/04:00/350°C
#SEG. 5:                     ,350°C/10.0(K/min)/800°C

##Temp./°C,Time/min,Mass/%,Segment
 27.30400,  0.00000,    100,1
 29.48400,  1.00000,    100.405,1
 34.17500,  2.00000,     97.21022,1
 40.95800,  3.00000,     97.96237,1
 49.51100,  4.00000,     98.66183,1
 59.85500,  5.00000,     99.35735,1
 71.47200,  6.00000,     99.79516,1
 83.77800,  7.00000,    100.081,2
 94.60900,  8.00000,     99.66738,2
101.262,  9.00000,     98.60502,2
105.512, 10.00000,     97.86505,2
108.428, 11.00000,     97.18799,2
109.842, 12.00000,     96.47419,2
110.138, 13.00000,     95.89857,2
109.723, 14.00000,     95.30842,2
108.839, 15.00000,     94.86039,2
107.694, 16.00000,     94.48136,2
106.445, 17.00000,     94.12455,3
106.683, 18.00000,     94.64355,3
111.037, 19.00000,     95.74642,3
117.44, 20.00000,     96.33638,3
125.792, 21.00000,     96.87975,3
136.028, 22.00000,     97.33387,3
147.318, 23.00000,     97.58728,3
159.179, 24.00000,     97.71703,3
171.204, 25.00000,     97.71093,3
183.14, 26.00000,     97.65627,3
194.864, 27.00000,     97.55896,3
206.277, 28.00000,     97.43530,3
217.384, 29.00000,     97.28925,3
228.169, 30.00000,     97.11703,3
238.696, 31.00000,     96.87366,3
249.033, 32.00000,     96.52903,3
259.268, 33.00000,     96.10932,3
269.372, 34.00000,     95.49910,3
279.398, 35.00000,     94.64964,3
289.375, 36.00000,     93.46362,3
299.33, 37.00000,     91.83961,3
309.24, 38.00000,     89.67634,3
319.154, 39.00000,     86.98799,3
329.069, 40.00000,     83.74606,3
338.959, 41.00000,     79.94068,3
348.858, 42.00000,     75.68100,4
353.216, 43.00000,     71.02401,4
354.426, 44.00000,     66.99552,4
355.246, 45.00000,     63.59158,4
355.016, 46.00000,     60.65376,4
354.51, 47.00000,     58.11953,4
353.874, 48.00000,     55.90968,4
353.237, 49.00000,     54.00394,4
352.642, 50.00000,     52.23799,4
352.133, 51.00000,     50.68297,4
351.709, 52.00000,     49.28602,4
351.367, 53.00000,     48.01487,4
351.086, 54.00000,     46.85323,4
350.854, 55.00000,     45.76039,4
350.681, 56.00000,     44.73047,4
350.543, 57.00000,     43.77957,4
350.44, 58.00000,     42.88351,4
350.333, 59.00000,     42.01774,4
350.246, 60.00000,     41.26971,4
350.182, 61.00000,     40.49104,4
350.141, 62.00000,     39.80376,4
350.092, 63.00000,     39.15699,4
350.073, 64.00000,     38.47796,4
350.06, 65.00000,     37.96487,4
350.06, 66.00000,     37.22491,4
350.072, 67.00000,     36.68961,4
350.054, 68.00000,     36.18495,4
350.037, 69.00000,     35.63746,4
350.03, 70.00000,     35.20358,4
350.021, 71.00000,     34.63387,4
350.034, 72.00000,     34.20197,4
350.029, 73.00000,     33.80663,4
350.051, 74.00000,     33.34247,4
350.045, 75.00000,     32.89229,4
350.051, 76.00000,     32.53548,4
350.045, 77.00000,     32.12796,4
350.06, 78.00000,     31.72258,4
350.055, 79.00000,     31.37581,4
350.05, 80.00000,     30.99875,4
350.047, 81.00000,     30.64391,4
350.052, 82.00000,     30.27294,4
350.031, 83.00000,     30.03566,4
350.02, 84.00000,     29.62007,4
350.016, 85.00000,     29.32007,4
350.028, 86.00000,     28.99355,4
350.026, 87.00000,     28.71577,4
350.015, 88.00000,     28.48065,4
350.014, 89.00000,     28.13799,4
350.021, 90.00000,     27.59875,4
350.045, 91.00000,     27.56828,4
350.032, 92.00000,     27.29265,4
350.016, 93.00000,     27.37778,4
350.004, 94.00000,     26.74713,4
350.021, 95.00000,     26.49588,4
350.033, 96.00000,     26.25251,4
350.037, 97.00000,     26.05179,4
350.037, 98.00000,     25.78423,4
350.043, 99.00000,     25.56523,4
350.041,100,     25.31380,4
350.027,101,     25.15573,4
350.043,102,     24.93262,4
350.04,103,     24.71165,4
350.034,104,     24.48871,4
350.041,105,     24.26559,4
350.035,106,     24.04677,4
350.027,107,     23.85000,4
350.034,108,     23.67168,4
350.046,109,     23.46882,4
350.042,110,     23.29050,4
350.042,111,     23.07760,4
350.033,112,     22.89910,4
350.026,113,     22.67616,4
350.101,114,     22.50591,4
350.023,115,     22.32939,4
350.04,116,     22.15914,4
350.026,117,     22.00914,4
350.047,118,     21.83674,4
350.048,119,     21.67867,4
350.049,120,     21.50018,4
350.031,121,     21.34014,4
350.036,122,     21.18190,4
350.032,123,     21.03387,4
350.026,124,     20.88387,4
350.031,125,     20.72581,4
350.028,126,     20.57975,4
350.024,127,     20.44606,4
350.03,128,     20.27563,4
350.028,129,     20.13584,4
350.028,130,     19.96147,4
350.035,131,     19.82563,4
350.04,132,     19.70197,4
350.03,133,     19.57832,4
350.03,134,     19.43226,4
350.034,135,     19.31272,4
350.028,136,     19.18495,4
350.034,137,     19.03692,4
350.034,138,     18.89301,4
350.03,139,     18.75520,4
350.032,140,     18.61326,4
350.101,141,     18.49964,4
350.03,142,     18.35771,4
350.025,143,     18.25842,4
350.026,144,     18.11846,4
350.024,145,     17.99480,4
350.024,146,     17.84677,4
350.019,147,     17.74552,4
350.015,148,     17.64606,4
350.026,149,     17.50412,4
350.026,150,     17.40681,4
350.019,151,     17.26093,4
350.034,152,     17.17778,4
350.034,153,     17.04391,4
350.024,154,     16.90806,4
350.039,155,     16.80484,4
350.033,156,     16.70341,4
350.031,157,     16.55735,4
350.026,158,     16.46004,4
350.027,159,     16.36272,4
350.021,160,     16.26147,4
350.026,161,     16.13978,4
350.026,162,     16.04247,4
350.042,163,     15.91057,4
350.033,164,     15.83763,4
350.03,165,     15.73029,4
350.029,166,     15.63297,4
350.036,167,     15.53566,4
350.049,168,     15.40986,4
350.043,169,     15.33082,4
350.036,170,     15.21720,4
350.038,171,     15.11989,4
350.033,172,     15.01039,4
350.041,173,     14.93351,4
350.032,174,     14.81183,4
350.031,175,     14.73889,4
350.039,176,     14.63548,4
350.031,177,     14.51380,4
350.041,178,     14.45287,4
350.018,179,     14.34946,4
350.016,180,     14.25824,4
350.021,181,     14.19140,4
350.022,182,     14.06971,4
350.028,183,     13.99068,4
350.03,184,     13.91774,4
350.031,185,     13.82043,4
350.048,186,     13.73530,4
350.028,187,     13.66219,4
350.025,188,     13.54677,4
350.03,189,     13.48387,4
350.03,190,     13.41685,4
350.037,191,     13.33996,4
350.04,192,     13.23853,4
350.028,193,     13.13925,4
350.042,194,     13.06004,4
350.03,195,     12.96685,4
350.036,196,     12.86541,4
350.018,197,     12.81685,4
350.025,198,     12.74391,4
350.035,199,     12.65663,4
350.032,200,     12.57151,4
350.034,201,     12.48638,4
350.034,202,     12.41129,4
350.034,203,     12.36470,4
350.034,204,     12.26738,4
350.034,205,     12.17007,4
350.03,206,     12.12742,4
350.03,207,     12.05448,4
350.031,208,     11.97742,4
350.03,209,     11.90448,4
350.029,210,     11.83154,4
350.037,211,     11.76057,4
350.038,212,     11.68548,4
350.029,213,     11.61864,4
350.038,214,     11.54158,4
350.039,215,     11.47473,4
350.031,216,     11.40161,4
350.024,217,     11.32258,4
350.029,218,     11.25573,4
350.035,219,     11.18280,4
350.042,220,     11.10968,4
350.031,221,     11.07330,4
350.034,222,     11.01452,4
350.023,223,     10.94964,4
350.008,224,     10.88262,4
350.023,225,     10.81774,4
350.015,226,     10.74480,4
350.017,227,     10.69606,4
350.024,228,     10.63118,4
350.018,229,     10.57849,4
350.021,230,     10.48118,4
350.027,231,     10.43047,4
350.041,232,     10.36165,4
350.029,233,     10.30072,4
350.017,234,     10.25609,4
350.023,235,     10.20341,4
350.027,236,     10.15072,4
350.035,237,     10.09194,4
350.045,238,     10.02706,4
350.033,239,      9.98459,4
350.039,240,      9.91147,4
350.044,241,      9.83853,4
350.044,242,      9.78781,4
350.042,243,      9.71487,4
350.046,244,      9.68656,4
350.034,245,      9.63172,4
350.029,246,      9.55878,4
350.022,247,      9.49588,4
350.025,248,      9.46541,4
350.031,249,      9.39247,4
350.049,250,      9.31953,4
350.027,251,      9.27688,4
350.036,252,      9.23226,4
350.02,253,      9.15932,4
350.022,254,      9.11075,4
350.016,255,      9.06201,4
350.029,256,      8.99516,4
350.026,257,      8.94642,4
350.022,258,      8.89785,4
350.03,259,      8.83692,4
350.028,260,      8.78835,4
350.018,261,      8.72957,4
350.023,262,      8.68692,4
350.027,263,      8.63835,4
350.043,264,      8.58961,4
350.026,265,      8.51254,4
350.024,266,      8.46183,4
350.016,267,      8.43351,4
350.02,268,      8.33620,4
350.031,269,      8.31398,4
350.033,270,      8.26326,4
350.044,271,      8.20036,4
350.026,272,      8.18011,4
350.029,273,      8.10108,4
350.03,274,      8.02796,4
350.019,275,      8.00376,4
350.043,276,      7.95914,4
350.031,277,      7.89821,4
350.027,278,      7.84767,4
350.032,279,      7.80502,4
350.031,280,      7.78065,4
350.034,281,      7.72993,4
350.027,282,      7.65699,5
355.71,283,      7.89229,5
364.058,284,      8.11523,5
373.016,285,      8.16989,5
383.205,286,      8.20233,5
393.69,287,      8.05645,5
404.336,288,      7.66918,5
414.965,289,      6.90681,5
425.517,290,      5.64588,5
435.98,291,      4.03208,5
446.316,292,      2.28226,5
456.587,293,      0.83280,5
466.773,294,     -0.13638,5
476.916,295,     -0.50125,5
487.023,296,     -0.51344,5
497.108,297,     -0.44050,5
507.154,298,     -0.38781,5
517.18,299,     -0.29050,5
527.203,300,     -0.19104,5
537.21,301,-4.318996e-02,5
547.204,302, 2.992832e-02,5
557.185,303,      0.13118,5
567.172,304,      0.23262,5
577.179,305,      0.30556,5
587.174,306,      0.40287,5
597.163,307,      0.51649,5
607.168,308,      0.62186,5
617.159,309,      0.70699,5
627.16,310,      0.78011,5
637.177,311,      0.82867,5
647.17,312,      0.92599,5
657.184,313,      0.97473,5
667.18,314,      1.04964,5
677.166,315,      1.07599,5
687.155,316,      1.16111,5
697.14,317,      1.19767,5
707.12,318,      1.31935,5
717.101,319,      1.36792,5
727.066,320,      1.44104,5
737.056,321,      1.49158,5
747.017,322,      1.57473,5
756.979,323,      1.67204,5
766.935,324,      1.73907,5
776.885,325,      1.78763,5
786.832,326,      1.84839,5