File: UV-Vis data/2024_09/2024_09_11_non-imine polymer t=24hrs FeCl3 solution doping.csv
t=24hrs FeCl3 0uM,,t=24hrs FeCl3 5uM,,t=24hrs FeCl3 20uM,,t=24hrs FeCl3 50uM,,t=24hrs FeCl3 100uM,,
Wavelength (nm),Abs,Wavelength (nm),Abs,Wavelength (nm),Abs,Wavelength (nm),Abs,Wavelength (nm),Abs,
1400,0.0140612,1400,0.0148932,1400,0.0150778,1400,0.0142609,1400,0.013205,
1398,0.012053,1398,0.0127252,1398,0.0133475,1398,0.0129417,1398,0.0120334,
1396,0.00880662,1396,0.00943292,1396,0.00973135,1396,0.0095902,1396,0.00883031,
1394,0.00507563,1394,0.00569738,1394,0.00597197,1394,0.00602184,1394,0.00539901,
1392,0.00376495,1392,0.0042299,1392,0.00403022,1392,0.00420907,1392,0.00364068,
1390,0.00149897,1390,0.00199661,1390,0.00210923,1390,0.00238468,1390,0.00183879,
1388,0.00136234,1388,0.00183686,1388,0.00147466,1388,0.00176263,1388,0.00135094,
1386,0.000399397,1386,0.000857879,1386,0.00070537,1386,0.00108611,1386,0.000640451,
1384,0.000111324,1384,0.000665702,1384,0.000465498,1384,0.000859669,1384,0.00052386,
1382,0.000133333,1382,0.000601255,1382,0.000445441,1382,0.000771647,1382,0.000646025,
1380,0.000196597,1380,0.000704748,1380,0.000535859,1380,0.00089038,1380,0.000801833,
1378,-0.000189703,1378,0.000318929,1378,0.000217419,1378,0.000584018,1378,0.000563385,
1376,-0.000100478,1376,0.00040787,1376,0.000308049,1376,0.000733477,1376,0.00065025,
1374,-0.000109122,1374,0.000397247,1374,0.000292688,1374,0.00074123,1374,0.000738377,
1372,0.000108346,1372,0.000715871,1372,0.000286575,1372,0.00074123,1372,0.000823592,
1370,-0.00029381,1370,0.000211488,1370,0.000253239,1370,0.000671613,1370,0.000831761,
1368,-0.000125891,1368,0.000394267,1368,0.000351674,1368,0.000749087,1368,0.00100323,
1366,-0.000146749,1366,0.000300796,1366,0.000218558,1366,0.00067545,1366,0.000914348,
1364,-0.000442476,1364,-5.60654e-05,1364,6.29851e-05,1364,0.000605299,1364,0.000917202,
1362,-0.00048023,1362,9.24745e-05,1362,-0.000257903,1362,0.000308904,1362,0.000694973,
1360,-0.000936528,1360,-0.000435546,1360,-0.000600398,1360,-2.8163e-05,1360,0.000298853,
1358,-0.00115634,1358,-0.000707146,1358,-0.000975323,1358,-0.000399444,1358,-8.53635e-05,
1356,-0.00146304,1356,-0.00104691,1356,-0.00121504,1356,-0.000669103,1356,-0.000209781,
1354,-0.00148977,1354,-0.00105466,1354,-0.00119217,1354,-0.000585301,1354,-8.4173e-05,
1352,-0.00175308,1352,-0.00133057,1352,-0.00138414,1352,-0.000754645,1352,-0.000293396,
1350,-0.0017209,1350,-0.00135509,1350,-0.00146526,1350,-0.000690864,1350,-0.000169002,
1348,-0.00193125,1348,-0.00160414,1348,-0.00154012,1348,-0.000759141,1348,-0.000165018,
1346,-0.0020473,1346,-0.0016994,1346,-0.00163184,1346,-0.000854276,1346,-0.000214076,
1344,-0.00204993,1344,-0.00170074,1344,-0.0016209,1344,-0.000759916,1344,-5.79807e-05,
1342,-0.00210681,1342,-0.0017868,1342,-0.0016438,1342,-0.000815884,1342,-0.000129721,
1340,-0.00214561,1340,-0.00181088,1340,-0.00172369,1340,-0.000862595,1340,-0.000102703,
1338,-0.00218656,1338,-0.00191192,1338,-0.00177437,1338,-0.000922269,1338,-0.000137692,
1336,-0.00225182,1336,-0.00193176,1336,-0.00176396,1336,-0.000897729,1336,-0.000180595,
1334,-0.00230533,1334,-0.00201705,1334,-0.00180541,1334,-0.000932808,1334,-0.000221062,
1332,-0.00233154,1332,-0.00197645,1332,-0.00174545,1332,-0.000889514,1332,-0.000211333,
1330,-0.00234287,1330,-0.00192449,1330,-0.00170208,1330,-0.000847714,1330,-0.000150578,
1328,-0.00231517,1328,-0.00198856,1328,-0.00174679,1328,-0.000934048,1328,-0.000166053,
1326,-0.00235585,1326,-0.00202829,1326,-0.00176298,1326,-0.000821361,1326,-0.000209057,
1324,-0.00231743,1324,-0.00198608,1324,-0.00170884,1324,-0.000772785,1324,-0.000167191,
1322,-0.00236723,1322,-0.00198521,1322,-0.00173214,1322,-0.00074405,1322,-0.000184476,
1320,-0.00241727,1320,-0.00199696,1320,-0.00174911,1320,-0.000715106,1320,-0.000236119,
1318,-0.00239539,1318,-0.00198103,1318,-0.00166686,1318,-0.000658867,1318,-0.000232756,
1316,-0.00239215,1316,-0.00200845,1316,-0.0016552,1316,-0.000666259,1316,-0.000278444,
1314,-0.00241104,1314,-0.00202102,1314,-0.00153434,1314,-0.000681457,1314,-0.000329455,
1312,-0.00243653,1312,-0.00205859,1312,-0.00147935,1312,-0.000674634,1312,-0.000402599,
1310,-0.00262867,1310,-0.00211727,1310,-0.00157706,1310,-0.000825443,1310,-0.000539336,
1308,-0.00244883,1308,-0.00205488,1308,-0.00133769,1308,-0.000751751,1308,-0.000459078,
1306,-0.00243298,1306,-0.00208471,1306,-0.00137351,1306,-0.00074498,1306,-0.000501225,
1304,-0.00236836,1304,-0.00206786,1304,-0.00138837,1304,-0.000714538,1304,-0.000543214,
1302,-0.00232784,1302,-0.00206745,1302,-0.00134703,1302,-0.000766945,1302,-0.000397064,
1300,-0.00241063,1300,-0.00212722,1300,-0.0014425,1300,-0.000803843,1300,-0.000548798,
1298,-0.00236383,1298,-0.00207611,1298,-0.00150261,1298,-0.000835778,1298,-0.000545437,
1296,-0.00238242,1296,-0.00215395,1296,-0.00164561,1296,-0.000881867,1296,-0.000644962,
1294,-0.00240435,1294,-0.0021792,1294,-0.00166036,1294,-0.000898969,1294,-0.000643876,
1292,-0.00239874,1292,-0.00222396,1292,-0.00171982,1292,-0.000967161,1292,-0.000709421,
1290,-0.00242685,1290,-0.00223024,1290,-0.00179201,1290,-0.000957088,1290,-0.000713659,
1288,-0.00242994,1288,-0.00225378,1288,-0.00173018,1288,-0.00100203,1288,-0.000774542,
1286,-0.00241341,1286,-0.00225198,1286,-0.0018148,1286,-0.00100187,1286,-0.000832213,
1284,-0.00242026,1284,-0.00222334,1284,-0.00175488,1284,-0.0009793,1284,-0.000848128,
1282,-0.00244533,1282,-0.00228288,1282,-0.00177999,1282,-0.00100012,1282,-0.00089933,
1280,-0.00236913,1280,-0.00220866,1280,-0.00179,1280,-0.000982193,1280,-0.00092418,
1278,-0.00235744,1278,-0.00224621,1278,-0.00173771,1278,-0.000973463,1278,-0.000942262,
1276,-0.00237428,1276,-0.00225491,1276,-0.00180593,1276,-0.00099898,1276,-0.000987978,
1274,-0.00241197,1274,-0.00225491,1274,-0.00176669,1274,-0.000957966,1274,-0.0010482,
1272,-0.00234447,1272,-0.00221371,1272,-0.00174797,1272,-0.000965198,1272,-0.00109732,
1270,-0.00240291,1270,-0.00225393,1270,-0.00181469,1270,-0.00099304,1270,-0.00117167,
1268,-0.00240456,1268,-0.00223606,1268,-0.00180665,1268,-0.00103292,1268,-0.00116274,
1266,-0.00243504,1266,-0.00229096,1266,-0.00187166,1266,-0.00108652,1266,-0.00123946,
1264,-0.00241866,1264,-0.00224441,1264,-0.0018017,1264,-0.00104805,1264,-0.00126249,
1262,-0.0024218,1262,-0.00228247,1262,-0.00187748,1262,-0.00111023,1262,-0.00124922,
1260,-0.00241846,1260,-0.00224106,1260,-0.00186176,1260,-0.00114415,1260,-0.00129217,
1258,-0.00247437,1258,-0.0022612,1258,-0.00188145,1258,-0.0011392,1258,-0.00127426,
1256,-0.00252491,1256,-0.00234071,1256,-0.00194532,1256,-0.00117575,1256,-0.00131865,
1254,-0.00245002,1254,-0.00226521,1254,-0.00185872,1254,-0.00114033,1254,-0.00120864,
1252,-0.00250119,1252,-0.00226439,1252,-0.00190748,1252,-0.00112789,1252,-0.00118133,
1250,-0.00249743,1250,-0.00231146,1250,-0.00192496,1250,-0.00115241,1250,-0.00115613,
1248,-0.00247118,1248,-0.00224451,1248,-0.00192609,1248,-0.00116052,1248,-0.00118789,
1246,-0.0025245,1246,-0.00231764,1246,-0.00200628,1246,-0.00119119,1246,-0.00111338,
1244,-0.00253464,1244,-0.00225347,1244,-0.00195985,1244,-0.00121282,1244,-0.00106917,
1242,-0.00251117,1242,-0.00228072,1242,-0.0020069,1242,-0.00121029,1242,-0.00100358,
1240,-0.00255075,1240,-0.00233463,1240,-0.00202272,1240,-0.00130249,1240,-0.00103131,
1238,-0.00260942,1238,-0.00230842,1238,-0.00214138,1238,-0.00135911,1238,-0.00103338,
1236,-0.00262481,1236,-0.00233448,1236,-0.00221881,1236,-0.00139219,1236,-0.00114126,
1234,-0.00261344,1234,-0.00232243,1234,-0.00227829,1234,-0.00149059,1234,-0.00113821,
1232,-0.00269397,1232,-0.00236136,1232,-0.00235595,1232,-0.00155209,1232,-0.00125206,
1230,-0.00263876,1230,-0.00234431,1230,-0.00230698,1230,-0.00155426,1230,-0.00119837,
1228,-0.00263901,1228,-0.00226444,1228,-0.00222494,1228,-0.00145112,1228,-0.00110103,
1226,-0.00259018,1226,-0.00232366,1226,-0.00227062,1226,-0.00148492,1226,-0.00112055,
1224,-0.00262018,1224,-0.00230863,1224,-0.00230853,1224,-0.00138507,1224,-0.0011347,
1222,-0.00261189,1222,-0.00233783,1222,-0.00227273,1222,-0.00136644,1222,-0.00109861,
1220,-0.00260886,1220,-0.00234885,1220,-0.00235956,1220,-0.00134595,1220,-0.00123089,
1218,-0.00267791,1218,-0.00242067,1218,-0.00243323,1218,-0.0013348,1218,-0.00122769,
1216,-0.00268671,1216,-0.00244466,1216,-0.00251246,1216,-0.00132422,1216,-0.00130058,
1214,-0.00259841,1214,-0.00241038,1214,-0.00255472,1214,-0.00135916,1214,-0.00137201,
1212,-0.00269978,1212,-0.00248626,1212,-0.00253675,1212,-0.0013683,1212,-0.00140478,
1210,-0.00269211,1210,-0.00244796,1210,-0.00256223,1210,-0.00130517,1210,-0.00146273,
1208,-0.00268769,1208,-0.00242891,1208,-0.00257608,1208,-0.00135106,1208,-0.00148796,
1206,-0.00269844,1206,-0.00248739,1206,-0.00265877,1206,-0.00146707,1206,-0.00159042,
1204,-0.00270024,1204,-0.00247555,1204,-0.00267447,1204,-0.00155395,1204,-0.0016862,
1202,-0.00272201,1202,-0.00248147,1202,-0.00267673,1202,-0.00163689,1202,-0.00168259,
1200,-0.00269031,1200,-0.00247066,1200,-0.00263906,1200,-0.00152459,1200,-0.00157448,
1198,-0.00253377,1198,-0.00239828,1198,-0.00254092,1198,-0.00130053,1198,-0.00151603,
1196,-0.0025435,1196,-0.00242314,1196,-0.00252692,1196,-0.00127751,1196,-0.00155101,
1194,-0.00249799,1194,-0.00246881,1194,-0.00258704,1194,-0.00129377,1194,-0.00158165,
1192,-0.002549,1192,-0.00252425,1192,-0.00264781,1192,-0.00131292,1192,-0.00165979,
1190,-0.00251894,1190,-0.00242407,1190,-0.00262558,1190,-0.00133929,1190,-0.00168042,
1188,-0.00252749,1188,-0.00253248,1188,-0.00272443,1188,-0.0013717,1188,-0.00179902,
1186,-0.00247334,1186,-0.0024704,1186,-0.0026475,1186,-0.00134182,1186,-0.00181763,
1184,-0.00241089,1184,-0.00242026,1184,-0.00261313,1184,-0.00124679,1184,-0.0017405,
1182,-0.0022904,1182,-0.00236306,1182,-0.002535,1182,-0.00112944,1182,-0.00157458,
1180,-0.0021894,1180,-0.00232094,1180,-0.00237001,1180,-0.000983846,1180,-0.0014456,
1178,-0.00213458,1178,-0.00229266,1178,-0.00235678,1178,-0.000872206,1178,-0.00129346,
1176,-0.00203184,1176,-0.00226542,1176,-0.00224044,1176,-0.000763844,1176,-0.00123569,
1174,-0.0019514,1174,-0.00224868,1174,-0.00214391,1174,-0.000686367,1174,-0.0011282,
1172,-0.00187738,1172,-0.002227,1172,-0.0021216,1172,-0.000623508,1172,-0.00107273,
1170,-0.00185939,1170,-0.00222257,1170,-0.00204823,1170,-0.000609756,1170,-0.00100523,
1168,-0.00173771,1168,-0.0021829,1168,-0.00198407,1168,-0.00048928,1168,-0.000908062,
1166,-0.00163256,1166,-0.00206936,1166,-0.00187176,1166,-0.000364373,1166,-0.000849936,
1164,-0.00160424,1164,-0.00205539,1164,-0.00185702,1164,-0.000373219,1164,-0.000775627,
1162,-0.00152939,1162,-0.00202628,1162,-0.00174761,1162,-0.000329196,1162,-0.000664709,
1160,-0.00133248,1160,-0.00198516,1160,-0.00178221,1160,-0.000197983,1160,-0.000510947,
1158,-0.00149539,1158,-0.00186599,1158,-0.00179752,1158,-9.97013e-05,1158,-0.000335508,
1156,-0.00145417,1156,-0.00233623,1156,-0.00201314,1156,-0.000130239,1156,-0.000247503,
1154,-0.00119305,1154,-0.0022169,1154,-0.0021622,1154,-3.43234e-05,1154,-4.71617e-05,
1152,-0.00142032,1152,-0.00251905,1152,-0.00252888,1152,-0.000337318,1152,-0.000277926,
1150,-0.000971139,1150,-0.00161229,1150,-0.00143373,1150,0.000441217,1150,0.000554909,
1148,-0.000159118,1148,-0.000956106,1148,-0.000448217,1148,0.000990698,1148,0.00102811,
1146,-0.000462595,1146,-0.0010388,1146,-0.000410564,1146,0.00080759,1146,0.000815941,
1144,-0.000595538,1144,-0.00107501,1144,-0.000384443,1144,0.000775744,1144,0.000704566,
1142,-0.00055159,1142,-0.000964888,1142,-0.000106016,1142,0.000988441,1142,0.000934712,
1140,-0.000467146,1140,-0.000743843,1140,0.0002952,1140,0.00131072,1140,0.00130516,
1138,-0.000205952,1138,-0.000391013,1138,0.000776418,1138,0.0017205,1138,0.00182925,
1136,-0.000112641,1136,-0.00028993,1136,0.00102375,1136,0.00195589,1136,0.00207175,
1134,-0.00020057,1134,-0.0002831,1134,0.000907604,1134,0.00191956,1134,0.00199895,
1132,-0.000231773,1132,-0.00037027,1132,0.000714445,1132,0.00175907,1132,0.00182735,
1130,-0.000385013,1130,-0.000475369,1130,0.000414658,1130,0.00153612,1130,0.00160237,
1128,-0.000601329,1128,-0.000848076,1128,-0.000100944,1128,0.00116937,1128,0.00113755,
1126,-0.000776144,1126,-0.00103927,1126,-0.000467611,1126,0.000834148,1126,0.000785962,
1124,-0.000949236,1124,-0.00122826,1124,-0.000715726,1124,0.00062106,1124,0.000535937,
1122,-0.00111823,1122,-0.00138404,1122,-0.000996139,1122,0.000392894,1122,0.000288699,
1120,-0.00116754,1120,-0.00150932,1120,-0.00116181,1120,0.000214233,1120,0.000100889,
1118,-0.00123967,1118,-0.00163777,1118,-0.00129217,1118,0.000130847,1118,1.08981e-05,
1116,-0.00135029,1116,-0.00164855,1116,-0.00140385,1116,2.11752e-05,1116,-0.000141107,
1114,-0.00143693,1114,-0.00177871,1114,-0.00154131,1114,-0.000126357,1114,-0.000245071,
1112,-0.00155653,1112,-0.00185831,1112,-0.00168088,1112,-0.000248745,1112,-0.0004252535,
1110,-0.00159269,1110,-0.00189846,1110,-0.00174555,1110,-0.000316263,1110,-0.000452768,
1108,-0.00166448,1108,-0.00193001,1108,-0.00178242,1108,-0.000286981,1108,-0.00050076,
1106,-0.00169641,1106,-0.00191882,1106,-0.00177778,1106,-0.000345595,1106,-0.000484936,
1104,-0.00177283,1104,-0.00194408,1104,-0.00180366,1104,-0.000376064,1104,-0.000539801,
1102,-0.00195057,1102,-0.00193588,1102,-0.00193959,1102,-0.000488866,1102,-0.00058344,
1100,-0.00187779,1100,-0.00199149,1100,-0.00184196,1100,-0.00037415,1100,-0.000533182,
1098,-0.00185078,1098,-0.00197155,1098,-0.00187898,1098,-0.000401202,1098,-0.000520979,
1096,-0.00194176,1096,-0.00203391,1096,-0.00182098,1096,-0.000422254,1096,-0.00055552,
1094,-0.00191145,1094,-0.0019616,1094,-0.00184068,1094,-0.000429495,1094,-0.000550142,
1092,-0.00197139,1092,-0.00193846,1092,-0.00185898,1092,-0.000505621,1092,-0.000522013,
1090,-0.00202195,1090,-0.00197603,1090,-0.00186846,1090,-0.00049471,1090,-0.000544972,
1088,-0.00208631,1088,-0.00198954,1088,-0.00190351,1088,-0.000527443,1088,-0.000543989,
1086,-0.00205957,1086,-0.00195866,1086,-0.00186712,1086,-0.000440614,1086,-0.000480954,
1084,-0.00204138,1084,-0.00193635,1084,-0.00181918,1084,-0.000494244,1084,-0.000499519,
1082,-0.00206693,1082,-0.00192501,1082,-0.00187774,1082,-0.00050107,1082,-0.000478678,
1080,-0.00213592,1080,-0.00197335,1080,-0.0018896,1080,-0.000589179,1080,-0.000511464,
1078,-0.00208322,1078,-0.00190661,1078,-0.0018797,1078,-0.000556295,1078,-0.000498174,
1076,-0.00217729,1076,-0.00195032,1076,-0.00195042,1076,-0.000650441,1076,-0.000533544,
1074,-0.00220305,1074,-0.00195186,1074,-0.00197634,1074,-0.000633123,1074,-0.000492641,
1072,-0.00215813,1072,-0.00189331,1072,-0.0019063,1072,-0.000661038,1072,-0.000439425,
1070,-0.00216003,1070,-0.00189784,1070,-0.00190171,1070,-0.000610169,1070,-0.000401358,
1068,-0.00216328,1068,-0.00194939,1068,-0.00193439,1068,-0.0006172,1068,-0.000370943,
1066,-0.00220784,1066,-0.00194815,1066,-0.00194851,1066,-0.000677632,1066,-0.000355838,
1064,-0.00218764,1064,-0.0019281,1064,-0.00191831,1064,-0.000667603,1064,-0.000309072,
1062,-0.00215287,1062,-0.00188707,1062,-0.00192248,1062,-0.00070327,1062,-0.000288843,
1060,-0.00212485,1060,-0.00180938,1060,-0.00191609,1060,-0.000675667,1060,-0.000247399,
1058,-0.00213134,1058,-0.00188248,1058,-0.0019415,1058,-0.000692208,1058,-0.000261163,
1056,-0.00211114,1056,-0.00184944,1056,-0.00186176,1056,-0.000620354,1056,-0.000185407,
1054,-0.00214133,1054,-0.00186815,1054,-0.00193269,1054,-0.000649149,1054,-0.000144471,
1052,-0.00205807,1052,-0.00180758,1052,-0.00182995,1052,-0.000617769,1052,-6.06207e-05,
1050,-0.00205065,1050,-0.00175695,1050,-0.00183124,1050,-0.000591764,1050,-7.05077e-05,
1048,-0.00210898,1048,-0.00180629,1048,-0.00185444,1048,-0.000683059,1048,-8.25684e-05,
1046,-0.00209718,1046,-0.00177623,1046,-0.00183109,1046,-0.000604482,1046,-5.239e-05,
1044,-0.00214174,1044,-0.00180742,1044,-0.00189027,1044,-0.000622215,1044,-6.54348e-05,
1042,-0.00212062,1042,-0.00178716,1042,-0.00189913,1042,-0.000620561,1042,-8.10155e-05,
1040,-0.00212376,1040,-0.00178824,1040,-0.00189918,1040,-0.000621646,1040,-7.5684e-05,
1038,-0.00211114,1038,-0.00175916,1038,-0.00188331,1038,-0.000565757,1038,-7.24229e-05,
1036,-0.0021166,1036,-0.00175406,1036,-0.00186047,1036,-0.000564723,1036,-3.79989e-05,
1034,-0.00207003,1034,-0.00171296,1034,-0.00184578,1034,-0.00056524,1034,6.98927e-06,
1032,-0.00206255,1032,-0.00176597,1032,-0.00180557,1032,-0.000495537,1032,6.07586e-05,
1030,-0.00207039,1030,-0.00169568,1030,-0.00176463,1030,-0.000539025,1030,7.78979e-05,
1028,-0.00207853,1028,-0.00171729,1028,-0.00181727,1028,-0.000533182,1028,6.35806e-05,
1026,-0.00209507,1026,-0.00168516,1026,-0.00170409,1026,-0.000516067,1026,0.000155913,
1024,-0.00211815,1024,-0.00171327,1024,-0.00173348,1024,-0.000506707,1024,0.000164666,
1022,-0.00202741,1022,-0.00172018,1022,-0.00170796,1022,-0.000511516,1022,0.00014641,
1020,-0.00208013,1020,-0.0017275,1020,-0.0017374,1020,-0.000518238,1020,0.00023143,
1018,-0.00211696,1018,-0.00177453,1018,-0.00175375,1018,-0.000503759,1018,0.000245598,
1016,-0.00213932,1016,-0.0018217,1016,-0.00184795,1016,-0.000577804,1016,0.000202838,
1014,-0.0021401,1014,-0.00186382,1014,-0.00184238,1014,-0.000564465,1014,0.000228789,
1012,-0.00213391,1012,-0.00182428,1012,-0.00178438,1012,-0.000520669,1012,0.000266915,
1010,-0.00209878,1010,-0.00172797,1010,-0.00165979,1010,-0.000443821,1010,0.000360949,
1008,-0.00204504,1008,-0.0017177,1008,-0.0016322,1008,-0.000392151,1008,0.000435931,
1006,-0.0020709,1006,-0.00172126,1006,-0.00159594,1006,-0.000385478,1006,0.000454588,
1004,-0.00204117,1004,-0.00170141,1004,-0.00155544,1004,-0.000345233,1004,0.000437046,
1002,-0.00204998,1002,-0.00174787,1002,-0.00158072,1002,-0.000397064,1002,0.000515359,
1000,-0.00210522,1000,-0.00172889,1000,-0.00162513,1000,-0.00040053,1000,0.000516059,
998,-0.00204972,998,-0.00169734,998,-0.00154889,998,-0.00028041,998,0.000611624,
996,-0.00202221,996,-0.00173178,996,-0.001481,996,-0.0002697,996,0.000699095,
994,-0.00198603,994,-0.00175375,994,-0.00152305,994,-0.000248434,994,0.00070734,
992,-0.00202839,992,-0.00183573,992,-0.00154198,992,-0.000292672,992,0.000621008,
990,-0.00205637,990,-0.00177984,990,-0.00151159,990,-0.000228099,990,0.000704488,
988,-0.00200608,988,-0.00174426,988,-0.00141273,988,-0.000158341,988,0.000892118,
986,-0.00197454,986,-0.0016946,986,-0.00137913,986,-0.000106275,986,0.000983823,
984,-0.00195361,984,-0.00171564,984,-0.00134786,984,-5.72042e-05,984,0.00104812,
982,-0.00189439,982,-0.00165324,982,-0.00133924,982,-3.78436e-05,982,0.00115021,
980,-0.0018847,980,-0.00166015,980,-0.0012281,980,3.58535e-05,980,0.001244,
978,-0.00188052,978,-0.00162812,978,-0.00115835,978,6.05774e-05,978,0.00134281,
976,-0.00192238,976,-0.001675,976,-0.00119382,976,1.19595e-05,976,0.00139246,
974,-0.00193058,974,-0.00169641,974,-0.00126352,974,-2.44874e-05,974,0.00132121,
972,-0.00203391,972,-0.00185996,972,-0.00141289,972,-0.000259662,972,0.00117142,
970,-0.00214159,970,-0.0019549,970,-0.00162921,970,-0.00058861,970,0.000854559,
968,-0.00230214,968,-0.00210501,968,-0.00186269,968,-0.000934771,968,0.000487862,
966,-0.00235142,966,-0.00217662,966,-0.00197474,966,-0.00112469,966,0.000311494,
964,-0.00229709,964,-0.00213912,964,-0.00180015,964,-0.000912763,964,0.00054913,
962,-0.00207698,962,-0.00193789,962,-0.00142785,962,-0.000382012,962,0.00110212,
960,-0.00179314,960,-0.00159423,960,-0.000920203,960,0.000187351,960,0.00174714,
958,-0.00153171,958,-0.00141454,958,-0.000512654,958,0.000616809,958,0.00228596,
956,-0.00148471,956,-0.0013282,956,-0.000381599,956,0.000811247,956,0.00248881,
954,-0.00151613,954,-0.00136009,954,-0.000412478,954,0.000819676,954,0.00247537,
952,-0.00172482,952,-0.0015867,952,-0.000517256,952,0.000678639,952,0.00234564,
950,-0.00179459,950,-0.00162235,950,-0.000574082,950,0.000665857,950,0.00232633,
948,-0.00182057,948,-0.0016961,948,-0.000647495,948,0.000655617,948,0.00227634,
946,-0.00183104,946,-0.00168186,946,-0.000584991,946,0.000663135,946,0.00226221,
944,-0.00183,944,-0.00167727,944,-0.000619837,944,0.000702051,944,0.00228094,
942,-0.00186965,942,-0.00164628,942,-0.000620302,942,0.000743434,942,0.00228073,
940,-0.00188532,940,-0.00169151,940,-0.000643307,940,0.000717478,940,0.00226395,
938,-0.00190985,938,-0.00162596,938,-0.000694689,938,0.000746675,938,0.00231615,
936,-0.00187619,936,-0.00159506,936,-0.000688073,936,0.00081384,936,0.00233924,
934,-0.00186779,934,-0.00162235,934,-0.000672359,934,0.000853626,934,0.00239506,
932,-0.00190552,932,-0.00162106,932,-0.000767875,932,0.000821076,932,0.00244127,
930,-0.00191382,930,-0.00161894,930,-0.000784309,930,0.000858243,930,0.00245892,
928,-0.00195583,928,-0.00167005,928,-0.000801156,928,0.000834926,928,0.0024446,
926,-0.00193423,926,-0.00161136,926,-0.000824823,926,0.000888123,926,0.00245613,
924,-0.00188145,924,-0.00164726,924,-0.00079356,924,0.00093396,924,0.00262324,
922,-0.00193429,922,-0.00160548,922,-0.000783999,922,0.000980657,922,0.002713,
920,-0.00192949,920,-0.00157773,920,-0.000807771,920,0.000960395,920,0.00274957,
918,-0.00195686,918,-0.00161817,918,-0.000868485,918,0.000957541,918,0.00280415,
916,-0.00192527,916,-0.00159413,916,-0.000843632,916,0.0010272,916,0.00289123,
914,-0.00195011,914,-0.00162116,914,-0.000860942,914,0.0010023,914,0.00299404,
912,-0.0019867,912,-0.00162833,912,-0.000885329,912,0.00105214,912,0.00304326,
910,-0.00196011,910,-0.00162859,910,-0.000888842,910,0.000998845,910,0.00317143,
908,-0.00192625,908,-0.00155709,908,-0.000854225,908,0.00108395,908,0.00334372,
906,-0.00202123,906,-0.00163426,906,-0.000889721,906,0.001073,906,0.00334526,
904,-0.0019597,904,-0.00159599,904,-0.000856963,904,0.0011173,904,0.00351078,
902,-0.00196516,902,-0.00162121,902,-0.000854018,902,0.00121749,902,0.00364248,
900,-0.00196305,900,-0.0016487,900,-0.000820638,900,0.0012361,900,0.00374385,
898,0.00238528,898,0.000169612,898,0.0012327,898,0.00198798,898,0.00612813,
896,0.000528317,896,0.000986209,896,0.000589591,896,0.00433128,896,0.00439244,
894,-0.00172286,894,-0.000829371,894,-0.000850091,894,0.000755518,894,0.00710281,
892,-0.00154631,892,0.000849891,892,-1.59972e-05,892,0.00288755,892,0.00789474,
890,0.00176291,890,0.000741333,890,0.000385458,890,0.00240363,890,0.00613117,
888,0.00122001,888,0.00083298,888,0.00183081,888,0.00342746,888,0.00812572,
886,-0.000284238,886,-0.000505673,886,0.0013258,886,0.0047915,886,0.00520969,
884,0.000455314,884,0.00100409,884,0.00206426,884,0.0033848,884,0.00744899,
882,-0.000375909,882,0.00110669,882,1.36162e-05,882,0.00406489,882,0.00573337,
880,0.000453319,880,0.00101483,880,0.00113918,880,0.00310084,880,0.00712684,
878,0.00148827,878,0.000926151,878,0.00247292,878,0.00578255,878,0.00841106,
876,0.00118297,876,0.00094553,876,0.00142537,876,0.00547731,876,0.00787947,
874,-3.83111e-06,874,0.00142625,874,0.00122642,874,0.00463551,874,0.0058297,
872,0.000412715,872,0.000673557,872,0.000772062,872,0.00426846,872,0.00762473,
870,-0.000404823,870,-0.000290343,870,0.000608721,870,0.00424114,870,0.00725198,
868,0.00155142,868,0.00181687,868,0.00179299,868,0.00545455,868,0.00878195,
866,0.000153246,866,0.000844159,866,0.00152539,866,0.00471629,866,0.00742411,
864,-4.28133e-05,864,0.001714,864,0.00200753,864,0.00474277,864,0.0086964,
862,0.000136389,862,0.00110664,862,0.000977648,862,0.00492346,862,0.0083316,
860,0.000441036,860,0.000941872,860,0.00162575,860,0.00489744,860,0.00865874,
858,0.000570798,858,0.00119013,858,0.00163399,858,0.00526308,858,0.0086415,
856,0.00106327,856,0.00107365,856,0.00197082,856,0.00529594,856,0.00906798,
854,0.000301184,854,0.00128431,854,0.00125215,854,0.00473249,854,0.00864062,
852,0.000697203,852,0.00139862,852,0.00166413,852,0.00553805,852,0.00940967,
850,0.000707911,850,0.00134003,850,0.00148349,850,0.00506051,850,0.0092133,
848,0.000758085,848,0.00126419,848,0.00186424,848,0.00551616,848,0.00937753,
846,0.000784898,846,0.00107601,846,0.00184222,846,0.00569568,846,0.00978348,
844,0.000874946,844,0.00147149,844,0.0018599,844,0.00560232,844,0.00963214,
842,0.000766616,842,0.00130205,842,0.00185738,842,0.00586483,842,0.00989432,
840,0.000966388,840,0.00144084,840,0.00192042,840,0.00580566,840,0.009998939,
838,0.00100323,838,0.00159993,838,0.00192557,838,0.00605244,838,0.0102666,
836,0.000795868,836,0.00154384,836,0.00184729,836,0.00602766,836,0.0103379,
834,0.000973004,834,0.00167798,834,0.00187339,834,0.00605089,834,0.0106053,
832,0.000450572,832,0.0011831,832,0.0015998,832,0.0059208,832,0.0103241,
830,0.000722509,830,0.00142396,830,0.00176936,830,0.00619471,830,0.0107485,
828,0.000847012,828,0.00141033,828,0.00193054,828,0.00603283,828,0.0108606,
826,0.000838168,826,0.00158374,826,0.00166385,826,0.00619618,826,0.01089,
824,0.000528758,824,0.00129878,824,0.00146734,824,0.00579535,824,0.0109647,
822,0.000712578,822,0.00148921,822,0.00158158,822,0.00619833,822,0.0113013,
820,0.000791745,820,0.00150155,820,0.00178545,820,0.00641031,820,0.0115155,
818,0.000702025,818,0.00137763,818,0.00163459,818,0.00641573,818,0.0115242,
816,0.000640814,816,0.00127489,816,0.00146349,816,0.00622464,816,0.011594,
814,0.000431371,814,0.00133741,814,0.00142503,814,0.00627759,814,0.0116825,
812,0.000678872,812,0.00123151,812,0.00164191,812,0.00653296,812,0.012024,
810,0.000603485,810,0.001439,810,0.00171561,810,0.00660492,810,0.0122487,
808,0.000522719,808,0.00137556,808,0.00158218,808,0.0066633,808,0.0124676,
806,0.000638429,806,0.00132082,806,0.00153545,806,0.00667613,806,0.0125241,
804,0.000639155,804,0.00142165,804,0.00163441,804,0.0067333,804,0.0128744,
802,0.000520568,802,0.00132653,802,0.00135078,802,0.00659167,802,0.0126761,
800,0.000527125,800,0.00141074,800,0.00146435,800,0.00676796,800,0.0128245,
798,0.000481979,798,0.00135138,798,0.0014584,798,0.00679546,798,0.0132487,
796,0.000514607,796,0.00121544,796,0.00136397,796,0.00686144,796,0.0133762,
794,0.000686909,794,0.0012758,794,0.00130501,794,0.00680214,794,0.013554,
792,0.000671224,792,0.00138867,792,0.0014041,792,0.00695217,792,0.0137851,
790,0.000452904,790,0.00132796,790,0.00136543,790,0.00686141,790,0.0139385,
788,0.000472806,788,0.00130662,788,0.00132791,788,0.00684695,788,0.014193,
786,0.000540525,786,0.00130028,786,0.00141677,786,0.00686504,786,0.0141758,
784,0.000599544,784,0.0014295,784,0.00143565,784,0.00716276,784,0.0145264,
782,0.00070594,782,0.00128733,782,0.00156358,782,0.00718408,782,0.0147829,
780,0.000658391,780,0.00144591,780,0.0014697,780,0.00730389,780,0.015053,
778,0.000598093,778,0.00138288,778,0.00153583,778,0.00730105,778,0.0151635,
776,0.000491983,776,0.00123642,776,0.00148427,776,0.00720934,776,0.0151822,
774,0.000490635,774,0.00126422,774,0.00151407,774,0.00730768,774,0.0155444,
772,0.000518054,772,0.00123984,772,0.00139083,772,0.00731426,772,0.0155233,
770,0.000528887,770,0.00118424,770,0.00137724,770,0.00742861,770,0.0158773,
768,0.000553484,768,0.00133884,768,0.00150142,768,0.00741221,768,0.0159916,
766,0.000555946,766,0.00144718,766,0.00168074,766,0.00754607,766,0.016248,
764,0.000518002,764,0.00137413,764,0.00159086,764,0.00756269,764,0.0164787,
762,0.00057352,762,0.00140194,762,0.00158546,762,0.00754035,762,0.0165742,
760,0.000493486,760,0.00148051,760,0.0015668,760,0.00773929,760,0.0167823,
758,0.000392609,758,0.00137665,758,0.00143648,758,0.00761651,758,0.0168118,
756,0.000508776,756,0.00137597,756,0.00149575,756,0.00778306,756,0.0171376,
754,0.000375846,754,0.00127575,754,0.00153612,754,0.00764035,754,0.0172162,
752,0.000465394,752,0.00131817,752,0.00148425,752,0.00778243,752,0.0174149,
750,0.000449665,750,0.00129649,750,0.00153163,750,0.0077839,750,0.0175957,
748,0.000524119,748,0.00142817,748,0.00153165,748,0.00785546,748,0.0177017,
746,0.000535808,746,0.00138545,746,0.00162968,746,0.0079733,746,0.0179901,
744,0.000465705,744,0.00132201,744,0.00148043,744,0.00784218,744,0.017921,
742,0.000559212,742,0.00144838,742,0.00151687,742,0.00795919,742,0.0182721,
740,0.000421473,740,0.00141773,740,0.00152277,740,0.00795305,740,0.0183209,
738,0.000477004,738,0.00147019,738,0.0016507,738,0.0081617,738,0.0186728,
736,0.000538192,736,0.00146871,736,0.00163121,736,0.00816541,736,0.0188549,
734,0.00048838,734,0.00149284,734,0.00163835,734,0.00819841,734,0.0189972,
732,0.000494704,732,0.00154752,732,0.00162276,732,0.00830698,732,0.0191681,
730,0.000389733,730,0.00142248,730,0.0014464,730,0.00822878,730,0.0191817,
728,0.000507688,728,0.00152908,728,0.00161505,728,0.00832028,728,0.0194771,
726,0.000585106,726,0.00166873,726,0.00174056,726,0.00846714,726,0.0196518,
724,0.000535678,724,0.00146632,724,0.00155501,724,0.00838485,724,0.0197591,
722,0.000436735,722,0.00156051,722,0.00165758,722,0.00844658,722,0.0197657,
720,0.000428339,720,0.00148165,720,0.0015781,720,0.00842549,720,0.0200213,
718,0.000466534,718,0.00148529,718,0.00161892,718,0.00851218,718,0.0201978,
716,0.000399008,716,0.0015628,716,0.00159652,716,0.00848926,716,0.0202196,
714,0.000534356,714,0.00166621,714,0.00168588,714,0.00865158,714,0.0204653,
712,0.000552654,712,0.00162087,712,0.00178633,712,0.00864321,712,0.0205266,
710,0.000471976,710,0.00151188,710,0.00152931,710,0.00860859,710,0.0205936,
708,0.000459875,708,0.00156051,708,0.00161492,708,0.00873028,708,0.0206333,
706,0.000417664,706,0.00160151,706,0.00162786,706,0.00878718,706,0.0207871,
704,0.000524818,704,0.0014918,704,0.00164303,704,0.00871863,704,0.0209032,
702,0.000472339,702,0.00159437,702,0.00158959,702,0.00881531,702,0.021068,
700,0.000524741,700,0.00166034,700,0.00170555,700,0.00891407,700,0.0212051,
698,0.000509994,698,0.00163882,698,0.00167013,698,0.00889747,698,0.0212962,
696,0.000579844,696,0.00170584,696,0.00171236,696,0.00887853,696,0.0214433,
694,0.000589902,694,0.00167138,694,0.00173079,694,0.00898589,694,0.0215626,
692,0.000665702,692,0.00176673,692,0.00181012,692,0.00912442,692,0.0216137,
690,0.000534019,690,0.00178033,690,0.00177807,690,0.00901255,690,0.0217053,
688,0.000684187,688,0.00182953,688,0.00182444,688,0.00909846,688,0.0217681,
686,0.000883869,686,0.00196621,686,0.00191878,686,0.00925894,686,0.0219569,
684,0.00087326,684,0.00205596,684,0.00197266,684,0.00933122,684,0.0219877,
682,0.00101644,682,0.00222156,682,0.00209867,682,0.00942835,682,0.0220922,
680,0.00106659,680,0.00231995,680,0.00221168,680,0.00944946,680,0.0222646,
678,0.00121601,678,0.00242161,678,0.00223816,678,0.00965506,678,0.0223771,
676,0.0013533,676,0.0025313,676,0.00238424,676,0.00971449,676,0.0225113,
674,0.00137151,674,0.0025407,674,0.00243187,674,0.00977112,674,0.0225582,
672,0.00139358,672,0.00269224,672,0.00250156,672,0.00982473,672,0.0226362,
670,0.00147401,670,0.00269406,670,0.00248519,670,0.00976495,670,0.0227091,
668,0.00136442,668,0.00247196,668,0.00228414,668,0.00971629,668,0.0225945,
666,0.00127136,666,0.0024729,666,0.00222653,666,0.00967878,666,0.0226204,
664,0.00118652,664,0.00235225,664,0.00215306,664,0.00955286,664,0.0226117,
662,0.00107957,662,0.00226312,662,0.0020416,662,0.00955749,662,0.0225607,
660,0.000958683,660,0.00216557,660,0.00195084,660,0.00937198,660,0.0224826,
658,0.000881664,658,0.00202303,658,0.00187999,658,0.0092975,658,0.0225028,
656,0.000865894,656,0.00204358,656,0.00183416,656,0.00936068,656,0.0224869,
654,0.000868384,654,0.00210247,654,0.0018423,654,0.00924416,654,0.0225018,
652,0.000867917,652,0.00199565,652,0.00177606,652,0.00925159,652,0.0224254,
650,0.000812103,650,0.00197313,650,0.00176455,650,0.00915754,650,0.0223714,
648,0.000898188,648,0.00207791,648,0.00177921,648,0.00919167,648,0.0224272,
646,0.000929394,646,0.0020537,646,0.00187227,646,0.00918356,646,0.0224277,
644,0.000937566,644,0.00211227,644,0.00190157,644,0.00917404,644,0.0223712,
642,0.00107612,642,0.00216589,642,0.0019561,642,0.00923414,642,0.0223706,
640,0.00102181,640,0.00215644,640,0.00194684,640,0.00917687,640,0.0222251,
638,0.001101,638,0.00220083,638,0.00198587,638,0.00917991,638,0.0220876,
636,0.00114632,636,0.00224061,636,0.00200501,636,0.00919368,636,0.0220562,
634,0.00123221,634,0.00233458,634,0.00209323,634,0.00915926,634,0.0219936,
632,0.00132702,632,0.00232193,632,0.00209807,632,0.00926402,632,0.0219591,
630,0.00133232,630,0.0024453,630,0.00212408,630,0.00915347,630,0.0217585,
628,0.00148035,628,0.00252596,628,0.00222065,628,0.00918271,628,0.0217457,
626,0.00159172,626,0.00255955,626,0.00225263,626,0.0091642,626,0.0216082,
624,0.00171514,624,0.00263147,624,0.00238723,624,0.0091296,624,0.0214731,
622,0.00177947,622,0.00283031,622,0.0023948,622,0.0091195,622,0.0213756,
620,0.00196109,620,0.00291281,620,0.00256567,620,0.00916867,620,0.0212135,
618,0.00213111,618,0.00303664,618,0.0026547,618,0.00918155,618,0.021095,
616,0.00230998,616,0.00317716,616,0.00278193,616,0.00916597,616,0.0210465,
614,0.00258603,614,0.00340312,614,0.00291622,614,0.00921843,614,0.0208929,
612,0.0027696,612,0.00357644,612,0.00308609,612,0.00922528,612,0.0207484,
610,0.00302389,610,0.00383036,610,0.00319184,610,0.00923557,610,0.020571,
608,0.00325125,608,0.00399283,608,0.00331046,608,0.00917935,608,0.0204815,
606,0.00357696,606,0.00422109,606,0.00353238,606,0.00923845,606,0.0203458,
604,0.00388166,604,0.00452768,604,0.00364203,604,0.00910041,604,0.0201863,
602,0.00445094,602,0.00499067,602,0.00404101,602,0.00927624,602,0.0203093,
600,0.00469441,600,0.00526565,600,0.00418395,600,0.00922573,600,0.0200603,
598,0.00528122,598,0.00566557,598,0.00445442,598,0.00924638,598,0.019924,
596,0.00580126,596,0.00605874,596,0.00469517,596,0.00925275,596,0.0198248,
594,0.00636214,594,0.00655538,594,0.00504802,594,0.00917346,594,0.0195924,
592,0.00721647,592,0.00723969,592,0.00546328,592,0.00929099,592,0.0195182,
590,0.00814985,590,0.007924,590,0.0058744,590,0.00926278,590,0.0194148,
588,0.00938645,588,0.00874885,588,0.00637306,588,0.00919506,588,0.0192366,
586,0.0108444,586,0.00989644,586,0.0070035,586,0.00931035,586,0.0191682,
584,0.0125939,584,0.0112023,584,0.00773241,584,0.00933029,584,0.0190574,
582,0.0149858,582,0.0128973,582,0.00848129,582,0.009387,582,0.0189957,
580,0.0177926,580,0.0148861,580,0.00944948,580,0.00942028,580,0.0188228,
578,0.021634,578,0.0174761,578,0.0105636,578,0.00950764,578,0.0188294,
576,0.0261909,576,0.0205958,576,0.0117328,576,0.00952989,576,0.0187139,
574,0.0320682,574,0.0245913,574,0.0132104,574,0.0096458,574,0.0186538,
572,0.0394578,572,0.0296224,572,0.0149038,572,0.00982129,572,0.0186145,
570,0.0483181,570,0.0356353,570,0.0167006,570,0.0097322,570,0.0184718,
568,0.059409,568,0.0431443,568,0.019016,568,0.0100528,568,0.0183206,
566,0.0726265,566,0.0522513,566,0.0215516,566,0.0101725,566,0.0182677,
564,0.0880217,564,0.0629888,564,0.0244491,564,0.0103116,564,0.0182222,
562,0.105849,562,0.0754911,562,0.0276206,562,0.0105036,562,0.018188,
560,0.126221,560,0.0899236,560,0.0313236,560,0.0106936,560,0.0182116,
558,0.148404,558,0.106187,558,0.0353449,558,0.0109442,558,0.0182441,
556,0.172867,556,0.124282,556,0.039877,556,0.0112752,556,0.0183662,
554,0.199349,554,0.144353,554,0.044786,554,0.0116093,554,0.0184243,
552,0.226929,552,0.165634,552,0.0501026,552,0.0119415,552,0.0184925,
550,0.255553,550,0.188311,550,0.0558567,550,0.0123613,550,0.0185856,
548,0.284965,548,0.212124,548,0.062121,548,0.0128236,548,0.0186939,
546,0.314098,546,0.236398,546,0.0686969,546,0.0134427,546,0.0188605,
544,0.343558,544,0.261388,544,0.0758053,544,0.0140144,544,0.0191243,
542,0.371837,542,0.286233,542,0.0831856,542,0.0147773,542,0.0193724,
540,0.398897,540,0.310742,540,0.0908397,540,0.0155017,540,0.0196579,
538,0.425233,538,0.33546,538,0.0988563,538,0.0163994,538,0.0200166,
536,0.450412,536,0.359328,536,0.10733,536,0.0175627,536,0.0205331,
534,0.47472,534,0.382874,534,0.11642,534,0.0188285,534,0.0210897,
532,0.49774,532,0.405639,532,0.125505,532,0.0202003,532,0.021678,
530,0.519928,530,0.427946,530,0.134936,530,0.0216112,530,0.0223805,
528,0.541384,528,0.44983,528,0.144745,528,0.0231752,528,0.02313,
526,0.562122,526,0.471178,526,0.154991,526,0.0251772,526,0.0242319,
524,0.582213,524,0.491968,524,0.165361,524,0.027301,524,0.0253078,
522,0.602035,522,0.512689,522,0.176272,522,0.029663,522,0.0266547,
520,0.621173,520,0.532709,520,0.18717,520,0.032135,520,0.0281306,
518,0.639619,518,0.552302,518,0.198128,518,0.0348892,518,0.029682,
516,0.657558,516,0.571468,516,0.209531,516,0.0378877,516,0.0315311,
514,0.674664,514,0.590093,514,0.220976,514,0.0412209,514,0.03367,
512,0.690827,512,0.608108,512,0.232692,512,0.0447848,512,0.0358932,
510,0.705936,510,0.625457,510,0.244631,510,0.0486021,510,0.0384049,
508,0.719984,508,0.642164,508,0.256862,508,0.0528783,508,0.0412259,
506,0.732389,506,0.657673,506,0.268978,506,0.0572508,506,0.0441505,
504,0.743469,504,0.672217,504,0.281554,504,0.0620059,504,0.0473565,
502,0.752989,502,0.685766,502,0.294198,502,0.0670963,502,0.0507934,
500,0.760843,500,0.698018,500,0.307075,500,0.0723024,500,0.054284,
498,0.767178,498,0.709052,498,0.320235,498,0.077855,498,0.058053,
496,0.771982,496,0.718835,496,0.333344,496,0.0836073,496,0.0619609,
494,0.775227,494,0.72736,494,0.346248,494,0.0894493,494,0.0658781,
492,0.777228,492,0.734851,492,0.35935,492,0.0955657,492,0.0699848,
490,0.778101,490,0.741152,490,0.372411,490,0.102158,490,0.0743393,
488,0.777726,488,0.746326,488,0.385438,488,0.108639,488,0.078812,
486,0.776157,486,0.750396,486,0.398199,486,0.115189,486,0.0832733,
484,0.77379,484,0.753481,484,0.410914,484,0.12213,484,0.0880205,
482,0.770286,482,0.755491,482,0.423344,482,0.129021,482,0.0928384,
480,0.766039,480,0.756529,480,0.435515,480,0.136135,480,0.097981,
478,0.760768,478,0.756683,478,0.447532,478,0.143417,478,0.103207,
476,0.754783,476,0.756181,476,0.459352,476,0.150871,476,0.108689,
474,0.747871,474,0.75467,474,0.470799,474,0.158305,474,0.114285,
472,0.740353,472,0.752387,472,0.482125,472,0.165936,472,0.120097,
470,0.732111,470,0.749476,470,0.493318,470,0.173628,470,0.126026,
468,0.723142,468,0.745792,468,0.504401,468,0.181645,468,0.132216,
466,0.713381,466,0.741257,466,0.51518,466,0.189482,466,0.138562,
464,0.703219,464,0.736363,464,0.525728,464,0.197709,464,0.145081,
462,0.692299,462,0.73044,462,0.535804,462,0.205936,462,0.15178,
460,0.681084,460,0.724004,460,0.54508,460,0.214122,460,0.158649,
458,0.669209,458,0.716612,458,0.553575,458,0.222848,458,0.165842,
456,0.656852,456,0.708526,456,0.561,456,0.231431,456,0.17343,
454,0.644312,454,0.699844,454,0.567235,454,0.240177,454,0.181061,
452,0.631308,452,0.690322,452,0.572208,452,0.248967,452,0.189039,
450,0.617971,450,0.680179,450,0.576401,450,0.257962,450,0.197506,
448,0.604472,448,0.669486,448,0.579254,448,0.2669487,448,0.206058,
446,0.59081,446,0.65817,446,0.581387,446,0.276121,446,0.215386,
444,0.577102,444,0.646754,444,0.582774,444,0.285457,444,0.224768,
442,0.563475,442,0.634997,442,0.583725,442,0.294889,442,0.234623,
440,0.54989,440,0.623266,440,0.584214,440,0.303922,440,0.244467,
438,0.536706,438,0.611734,438,0.584533,438,0.312873,438,0.254313,
436,0.523221,436,0.599604,436,0.584057,436,0.321315,436,0.263882,
434,0.510131,434,0.587843,434,0.583371,434,0.329661,434,0.27322,
432,0.497564,432,0.576287,432,0.582242,432,0.33707,432,0.28211,
430,0.484886,430,0.564382,430,0.580119,430,0.343366,430,0.290339,
428,0.47218,428,0.552238,428,0.576846,428,0.348838,428,0.297783,
426,0.459979,426,0.540386,426,0.573065,426,0.353909,426,0.30521,
424,0.44744,424,0.52801,424,0.567837,424,0.358049,424,0.311939,
422,0.435072,422,0.515441,422,0.561732,422,0.361785,422,0.318452,
420,0.422935,420,0.503035,420,0.555012,420,0.365256,420,0.325448,
418,0.410925,418,0.490482,418,0.547546,418,0.368466,418,0.332257,
416,0.399153,416,0.478007,416,0.539837,416,0.371718,416,0.339287,
414,0.387872,414,0.465957,414,0.532021,414,0.374992,414,0.346907,
412,0.377011,412,0.454067,412,0.524103,412,0.378372,412,0.354867,
410,0.366489,410,0.442439,410,0.516231,410,0.38169,410,0.363053,
408,0.356407,408,0.431233,408,0.508247,408,0.384908,408,0.37139,
406,0.346846,406,0.420152,406,0.500201,406,0.387908,406,0.380071,
404,0.33717,404,0.409255,404,0.491638,404,0.390167,404,0.388336,
402,0.327873,402,0.398477,402,0.482942,402,0.3921,402,0.396825,
400,0.318443,400,0.387594,400,0.47322,400,0.392876,400,0.404829,
398,0.308677,398,0.376802,398,0.463278,398,0.393121,398,0.412924,
396,0.299053,396,0.365561,396,0.452649,396,0.392507,396,0.420946,
394,0.289383,394,0.354655,394,0.441855,394,0.391539,394,0.429298,
392,0.279877,392,0.343589,392,0.431021,392,0.390365,392,0.438124,
390,0.270541,390,0.33301,390,0.420483,390,0.389252,390,0.447487,
388,0.261721,388,0.322638,388,0.410366,388,0.38832,388,0.457516,
386,0.253171,386,0.312515,386,0.400941,386,0.387604,386,0.468037,
384,0.245272,384,0.303449,384,0.391984,384,0.387253,384,0.479566,
382,0.237608,382,0.294627,382,0.383222,382,0.386837,382,0.491422,
380,0.230816,380,0.286835,380,0.375019,380,0.386732,380,0.503992,
378,0.224773,378,0.279548,378,0.366811,378,0.386201,378,0.516967,
376,0.219239,376,0.273176,376,0.358735,376,0.385429,376,0.530488,
374,0.214511,374,0.267619,374,0.350847,374,0.384455,374,0.54436,
372,0.210737,372,0.262984,372,0.343307,372,0.383383,372,0.559055,
370,0.207434,370,0.259042,370,0.336303,370,0.38216,370,0.573903,
368,0.204934,368,0.25628,368,0.329906,368,0.380955,368,0.589067,
366,0.202929,366,0.253843,366,0.324292,366,0.379808,366,0.604181,
364,0.201127,364,0.252177,364,0.319348,364,0.378448,364,0.61888,
362,0.199355,362,0.250479,362,0.315023,362,0.377046,362,0.633284,
360,0.197745,360,0.249171,360,0.310727,360,0.375288,360,0.646581,
358,0.195905,358,0.247505,358,0.306838,358,0.373342,358,0.659167,
356,0.194016,356,0.24605,356,0.30351,356,0.37123,356,0.670568,
354,0.192039,354,0.244292,354,0.299865,354,0.369104,354,0.680921,
352,0.190019,352,0.242259,352,0.296532,352,0.366836,352,0.690151,
350,0.188082,350,0.240307,350,0.293321,350,0.364421,350,0.698176,
348,0.186137,348,0.238066,348,0.290183,348,0.362307,348,0.704565,
346,0.184218,346,0.235784,346,0.287182,346,0.360301,346,0.709387,
344,0.182623,344,0.233369,344,0.284583,344,0.358584,344,0.712494,
342,0.180925,342,0.231085,342,0.282291,342,0.357516,342,0.713887,
340,0.17938,340,0.228763,340,0.280167,340,0.356755,340,0.713564,
338,0.178202,338,0.226988,338,0.278366,338,0.357257,338,0.712288,
336,0.176814,336,0.225089,336,0.276744,336,0.357577,336,0.708723,
334,0.175575,334,0.223573,334,0.275352,334,0.358648,334,0.703546,
332,0.17454,332,0.221709,332,0.273844,332,0.358954,332,0.696372,
330,0.173377,330,0.219892,330,0.27216,330,0.359237,330,0.687746,
328,0.172054,328,0.217646,328,0.270042,328,0.359411,328,0.677826,
326,0.170628,326,0.215012,326,0.267657,326,0.359229,326,0.667164,
324,0.169256,324,0.212524,324,0.265644,324,0.359691,324,0.656759,
322,0.168035,322,0.210235,322,0.263729,322,0.360146,322,0.646875,
320,0.166563,320,0.207956,320,0.262042,320,0.360102,320,0.637076,
318,0.16571,318,0.206072,318,0.260969,318,0.360331,318,0.628579,
316,0.164571,316,0.204251,316,0.259607,316,0.360013,316,0.620319,
314,0.163307,314,0.202329,314,0.258094,314,0.359048,314,0.612704,
312,0.162576,312,0.200708,312,0.257552,312,0.358609,312,0.60679,
310,0.161519,310,0.198776,310,0.257195,310,0.358121,310,0.601466,
308,0.160641,308,0.197627,308,0.257432,308,0.357594,308,0.597317,
306,0.159919,306,0.196461,306,0.258068,306,0.356739,306,0.593179,
304,0.159265,304,0.195492,304,0.258844,304,0.355688,304,0.589034,
302,0.159037,302,0.195212,302,0.259628,302,0.354274,302,0.585178,
300,0.158874,300,0.195093,300,0.260604,300,0.352473,300,0.581013,

t=24hrs FeCl3 0uM,
t=24hrs FeCl3 0uM
Collection Time: 2024-09-11 11:17:12 AM
Operator Name  :
Scan Version 6.4.0.1610
Parameter List :
Instrument  Cary 7000
Instrument Version  3.07
Method Log     :
Method Name    :
Date/Time stamp: 2024-09-11 10:17:34 AM
Method Modifications:
ConcentrationReportSelected Changed: 2024-09-11 10:17:35 AM, Old:Choice 0, New:Choice 1
ConcentrationReportSelected Changed: 2024-09-11 10:17:35 AM, Old:ON, New:Choice 0
MCAReportSelected Changed: 2024-09-11 10:17:35 AM, Old:Choice 0, New:Choice 1
MCAReportSelected Changed: 2024-09-11 10:17:35 AM, Old:ON, New:Choice 0
X Start nm Changed: 2024-09-11 10:27:39 AM, Old:800.000, New:1400.000
X Stop nm Changed: 2024-09-11 10:27:39 AM, Old:200.000, New:300.000
UVVIS Scan Rate nm Changed: 2024-09-11 10:27:39 AM, Old:  602.007, New:  600.000
NIR Scan Rate nm Changed: 2024-09-11 10:27:39 AM, Old:    0.004, New:   12.000
Common Interval nm Changed: 2024-09-11 10:27:39 AM, Old:    1.000, New:    0.667
Source changeover Changed: 2024-09-11 10:27:39 AM, Old:   350.00, New:   300.00
Detector changeover Changed: 2024-09-11 10:27:39 AM, Old:   800.00, New:   900.00
Grating changeover Changed: 2024-09-11 10:27:39 AM, Old:   800.00, New:   900.00
Baseline Correction Changed: 2024-09-11 10:27:39 AM, Old:0, New:2
Sipper Type Changed: 2024-09-11 10:27:39 AM, Old:Internal RSA, New:External sipper
End Method Modifications
<Current Wavelength> , 300.000
<SBW (nm)> , 2.00
<Energy> , 52.48
<Slit Height> , Full

t=24hrs FeCl3 5uM,
t=24hrs FeCl3 5uM
Collection Time: 2024-09-11 11:21:50 AM
Operator Name  :
Scan Version 6.4.0.1610
Parameter List :
Instrument  Cary 7000
Instrument Version  3.07
Method Log     :
Method Name    :
Date/Time stamp: 2024-09-11 10:17:34 AM
Method Modifications:
ConcentrationReportSelected Changed: 2024-09-11 10:17:35 AM, Old:Choice 0, New:Choice 1
ConcentrationReportSelected Changed: 2024-09-11 10:17:35 AM, Old:ON, New:Choice 0
MCAReportSelected Changed: 2024-09-11 10:17:35 AM, Old:Choice 0, New:Choice 1
MCAReportSelected Changed: 2024-09-11 10:17:35 AM, Old:ON, New:Choice 0
X Start nm Changed: 2024-09-11 10:27:39 AM, Old:800.000, New:1400.000
X Stop nm Changed: 2024-09-11 10:27:39 AM, Old:200.000, New:300.000
UVVIS Scan Rate nm Changed: 2024-09-11 10:27:39 AM, Old:  602.007, New:  600.000
NIR Scan Rate nm Changed: 2024-09-11 10:27:39 AM, Old:    0.004, New:   12.000
Common Interval nm Changed: 2024-09-11 10:27:39 AM, Old:    1.000, New:    0.667
Source changeover Changed: 2024-09-11 10:27:39 AM, Old:   350.00, New:   300.00
Detector changeover Changed: 2024-09-11 10:27:39 AM, Old:   800.00, New:   900.00
Grating changeover Changed: 2024-09-11 10:27:39 AM, Old:   800.00, New:   900.00
Baseline Correction Changed: 2024-09-11 10:27:39 AM, Old:0, New:2
Sipper Type Changed: 2024-09-11 10:27:39 AM, Old:Internal RSA, New:External sipper
End Method Modifications
<Current Wavelength> , 300.000
<SBW (nm)> , 2.00
<Energy> , 57.54
<Slit Height> , Full

t=24hrs FeCl3 20uM,
t=24hrs FeCl3 20uM
Collection Time: 2024-09-11 11:26:22 AM
Operator Name  :
Scan Version 6.4.0.1610
Parameter List :
Instrument  Cary 7000
Instrument Version  3.07
Method Log     :
Method Name    :
Date/Time stamp: 2024-09-11 10:17:34 AM
Method Modifications:
ConcentrationReportSelected Changed: 2024-09-11 10:17:35 AM, Old:Choice 0, New:Choice 1
ConcentrationReportSelected Changed: 2024-09-11 10:17:35 AM, Old:ON, New:Choice 0
MCAReportSelected Changed: 2024-09-11 10:17:35 AM, Old:Choice 0, New:Choice 1
MCAReportSelected Changed: 2024-09-11 10:17:35 AM, Old:ON, New:Choice 0
X Start nm Changed: 2024-09-11 10:27:39 AM, Old:800.000, New:1400.000
X Stop nm Changed: 2024-09-11 10:27:39 AM, Old:200.000, New:300.000
UVVIS Scan Rate nm Changed: 2024-09-11 10:27:39 AM, Old:  602.007, New:  600.000
NIR Scan Rate nm Changed: 2024-09-11 10:27:39 AM, Old:    0.004, New:   12.000
Common Interval nm Changed: 2024-09-11 10:27:39 AM, Old:    1.000, New:    0.667
Source changeover Changed: 2024-09-11 10:27:39 AM, Old:   350.00, New:   300.00
Detector changeover Changed: 2024-09-11 10:27:39 AM, Old:   800.00, New:   900.00
Grating changeover Changed: 2024-09-11 10:27:39 AM, Old:   800.00, New:   900.00
Baseline Correction Changed: 2024-09-11 10:27:39 AM, Old:0, New:2
Sipper Type Changed: 2024-09-11 10:27:39 AM, Old:Internal RSA, New:External sipper
End Method Modifications
<Current Wavelength> , 300.000
<SBW (nm)> , 2.00
<Energy> , 60.26
<Slit Height> , Full

t=24hrs FeCl3 50uM,
t=24hrs FeCl3 50uM
Collection Time: 2024-09-11 11:30:48 AM
Operator Name  :
Scan Version 6.4.0.1610
Parameter List :
Instrument  Cary 7000
Instrument Version  3.07
Method Log     :
Method Name    :
Date/Time stamp: 2024-09-11 10:17:34 AM
Method Modifications:
ConcentrationReportSelected Changed: 2024-09-11 10:17:35 AM, Old:Choice 0, New:Choice 1
ConcentrationReportSelected Changed: 2024-09-11 10:17:35 AM, Old:ON, New:Choice 0
MCAReportSelected Changed: 2024-09-11 10:17:35 AM, Old:Choice 0, New:Choice 1
MCAReportSelected Changed: 2024-09-11 10:17:35 AM, Old:ON, New:Choice 0
X Start nm Changed: 2024-09-11 10:27:39 AM, Old:800.000, New:1400.000
X Stop nm Changed: 2024-09-11 10:27:39 AM, Old:200.000, New:300.000
UVVIS Scan Rate nm Changed: 2024-09-11 10:27:39 AM, Old:  602.007, New:  600.000
NIR Scan Rate nm Changed: 2024-09-11 10:27:39 AM, Old:    0.004, New:   12.000
Common Interval nm Changed: 2024-09-11 10:27:39 AM, Old:    1.000, New:    0.667
Source changeover Changed: 2024-09-11 10:27:39 AM, Old:   350.00, New:   300.00
Detector changeover Changed: 2024-09-11 10:27:39 AM, Old:   800.00, New:   900.00
Grating changeover Changed: 2024-09-11 10:27:39 AM, Old:   800.00, New:   900.00
Baseline Correction Changed: 2024-09-11 10:27:39 AM, Old:0, New:2
Sipper Type Changed: 2024-09-11 10:27:39 AM, Old:Internal RSA, New:External sipper
End Method Modifications
<Current Wavelength> , 300.000
<SBW (nm)> , 2.00
<Energy> , 72.44
<Slit Height> , Full

t=24hrs FeCl3 100uM,
t=24hrs FeCl3 100uM
Collection Time: 2024-09-11 11:35:17 AM
Operator Name  :
Scan Version 6.4.0.1610
Parameter List :
Instrument  Cary 7000
Instrument Version  3.07
Method Log     :
Method Name    :
Date/Time stamp: 2024-09-11 10:17:34 AM
Method Modifications:
ConcentrationReportSelected Changed: 2024-09-11 10:17:35 AM, Old:Choice 0, New:Choice 1
ConcentrationReportSelected Changed: 2024-09-11 10:17:35 AM, Old:ON, New:Choice 0
MCAReportSelected Changed: 2024-09-11 10:17:35 AM, Old:Choice 0, New:Choice 1
MCAReportSelected Changed: 2024-09-11 10:17:35 AM, Old:ON, New:Choice 0
X Start nm Changed: 2024-09-11 10:27:39 AM, Old:800.000, New:1400.000
X Stop nm Changed: 2024-09-11 10:27:39 AM, Old:200.000, New:300.000
UVVIS Scan Rate nm Changed: 2024-09-11 10:27:39 AM, Old:  602.007, New:  600.000
NIR Scan Rate nm Changed: 2024-09-11 10:27:39 AM, Old:    0.004, New:   12.000
Common Interval nm Changed: 2024-09-11 10:27:39 AM, Old:    1.000, New:    0.667
Source changeover Changed: 2024-09-11 10:27:39 AM, Old:   350.00, New:   300.00
Detector changeover Changed: 2024-09-11 10:27:39 AM, Old:   800.00, New:   900.00
Grating changeover Changed: 2024-09-11 10:27:39 AM, Old:   800.00, New:   900.00
Baseline Correction Changed: 2024-09-11 10:27:39 AM, Old:0, New:2
Sipper Type Changed: 2024-09-11 10:27:39 AM, Old:Internal RSA, New:External sipper
End Method Modifications
<Current Wavelength> , 300.000
<SBW (nm)> , 2.00
<Energy> , 72.44
<Slit Height> , Full