File: UV-Vis data/2024_09/2024_09_12_non-imine t=48hrs FeCl3 doping.csv
non-imine polymer t=48hrs FeCl3 0uM,,non-imine polymer t=48hrs FeCl3 5uM,,non-imine polymer t=48hrs FeCl3 20uM,,non-imine polymer t=48hrs FeCl3 50uM,,non-imine polymer t=48hrs FeCl3 100uM,,
Wavelength (nm),Abs,Wavelength (nm),Abs,Wavelength (nm),Abs,Wavelength (nm),Abs,Wavelength (nm),Abs,
1200,2.2159e-05,1200,-0.000887137,1200,-0.00145375,1200,-0.00168728,1200,-0.00236043,
1198,8.17815e-05,1198,-0.000865179,1198,-0.00140514,1198,-0.00162276,1198,-0.00230507,
1196,9.34066e-05,1196,-0.000794697,1196,-0.00138729,1196,-0.0016127,1196,-0.00223915,
1194,0.000128025,1194,-0.000797797,1194,-0.00141696,1194,-0.00152124,1194,-0.00227618,
1192,0.000119998,1192,-0.000826942,1192,-0.00155157,1192,-0.00160306,1192,-0.00235539,
1190,0.000120775,1190,-0.000855155,1190,-0.001567,1190,-0.00158954,1190,-0.00244101,
1188,0.000175076,1188,-0.000944793,1188,-0.00157639,1188,-0.00161012,1188,-0.00244595,
1186,0.000290797,1186,-0.000882797,1186,-0.00157123,1186,-0.00150943,1186,-0.00246448,
1184,0.000366234,1184,-0.000886104,1184,-0.00155735,1184,-0.0013893,1184,-0.00232068,
1182,0.000507843,1182,-0.000874944,1182,-0.00147011,1182,-0.00115092,1182,-0.00216477,
1180,0.000657172,1180,-0.000828595,1180,-0.00131121,1180,-0.000879439,1180,-0.00192192,
1178,0.000794675,1178,-0.000809114,1178,-0.00120735,1178,-0.000608463,1178,-0.00170512,
1176,0.000974457,1176,-0.000681612,1176,-0.00107041,1176,-0.000240828,1176,-0.00141732,
1174,0.00102502,1174,-0.000714383,1174,-0.00104066,1174,-4.69028e-05,1174,-0.00131054,
1172,0.00109766,1172,-0.000588197,1172,-0.000959051,1172,0.000192945,1172,-0.00117679,
1170,0.00119397,1170,-0.000537164,1170,-0.000925679,1170,0.000519609,1170,-0.00103534,
1168,0.00118484,1168,-0.000576874,1168,-0.000908578,1168,0.000732206,1168,-0.000972843,
1166,0.00134614,1166,-0.00046094,1166,-0.000776816,1166,0.00105271,1166,-0.000795627,
1164,0.00124968,1164,-0.000609394,1164,-0.000846267,1164,0.00112903,1164,-0.00080188,
1162,0.0012773,1162,-0.000639017,1162,-0.000794748,1162,0.00123854,1162,-0.000690141,
1160,0.00124662,1160,-0.000703011,1160,-0.00083924,1160,0.00127159,1160,-0.00062692,
1158,0.0010073,1158,-0.000944328,1158,-0.000999084,1158,0.00112613,1158,-0.000644031,
1156,0.000609291,1156,-0.00132401,1156,-0.00130409,1156,0.000696865,1156,-0.000613013,
1154,0.000331804,1154,-0.0018248,1154,-0.00225131,1154,0.000210633,1154,-0.00109231,
1152,0.000704748,1152,-0.00165386,1152,-0.00267514,1152,0.000204262,1152,-0.00125309,
1150,0.00127029,1150,-0.0008643,1150,-0.00178252,1150,0.00063524,1150,-0.000582406,
1148,0.0015768,1148,-0.000496106,1148,-0.000891322,1148,0.000933934,1148,-6.96794e-05,
1146,0.0014729,1146,-0.000240414,1146,-0.000438701,1146,0.000773644,1146,0.000180307,
1144,0.00162531,1144,-3.7326e-05,1144,6.32699e-05,1144,0.000834122,1144,0.000433729,
1142,0.0018209,1142,0.000365431,1142,0.000712785,1142,0.00109766,1142,0.00101244,
1140,0.00205034,1140,0.000780697,1140,0.00151924,1140,0.00143713,1140,0.00166489,
1138,0.00228159,1138,0.00117962,1138,0.00226148,1138,0.00190334,1138,0.00222266,
1136,0.00240386,1136,0.00156272,1136,0.00279368,1136,0.00223801,1136,0.00264085,
1134,0.00231927,1134,0.00143994,1134,0.00264327,1134,0.00202314,1134,0.00249099,
1132,0.0022302,1132,0.00126614,1132,0.00238814,1132,0.00186533,1132,0.00227243,
1130,0.00206943,1130,0.00107757,1130,0.0019459,1130,0.00168214,1130,0.00196424,
1128,0.00185506,1128,0.000720564,1128,0.00133435,1128,0.00117998,1128,0.0014082,
1126,0.00161053,1126,0.000424271,1126,0.000752302,1126,0.000793482,1126,0.000893882,
1124,0.00151492,1124,0.000208328,1124,0.00037056,1124,0.000448395,1124,0.000595008,
1122,0.00133365,1122,-2.41768e-05,1122,1.26841e-06,1122,7.01049e-05,1122,0.000229358,
1120,0.00124677,1120,-0.000123717,1120,-0.00019762,1120,-0.000148198,1120,8.66231e-05,
1118,0.00110549,1118,-0.000255523,1118,-0.000405909,1118,-0.000410358,1118,-8.11708e-05,
1116,0.00103265,1116,-0.000405909,1116,-0.000582406,1116,-0.000677942,1116,-0.000214438,
1114,0.000962237,1114,-0.000445062,1114,-0.000701202,1114,-0.000871069,1114,-0.000311866,
1112,0.000870148,1112,-0.000523565,1112,-0.000824875,1112,-0.000941745,1112,-0.000392513,
1110,0.000824318,1110,-0.000563276,1110,-0.000858823,1110,-0.000987462,1110,-0.000420443,
1108,0.000756736,1108,-0.000634829,1108,-0.000927125,1108,-0.00105342,1108,-0.000503449,
1106,0.00075072,1106,-0.000629298,1106,-0.000988908,1106,-0.00104386,1106,-0.00045644,
1104,0.000710426,1104,-0.000658764,1104,-0.000990664,1104,-0.00104634,1104,-0.000387599,
1102,0.000590368,1102,-0.000774645,1102,-0.00113414,1102,-0.00110604,1102,-0.000406633,
1100,0.00067965,1100,-0.000621233,1100,-0.000983123,1100,-0.000943812,1100,-0.000338663,
1098,0.000622875,1098,-0.000628522,1098,-0.000971294,1098,-0.000954143,1098,-0.000339543,
1096,0.000676954,1096,-0.00061141,1096,-0.000889721,1096,-0.00096153,1096,-0.000388426,
1094,0.000509346,1094,-0.000620871,1094,-0.000902069,1094,-0.000899382,1094,-0.000448476,
1092,0.000515722,1092,-0.000628264,1092,-0.000849936,1092,-0.000857377,1092,-0.000456647,
1090,0.000563955,1090,-0.000623042,1090,-0.000796867,1090,-0.000797487,1090,-0.00046125,
1088,0.000572794,1088,-0.000600657,1088,-0.000735884,1088,-0.000715778,1088,-0.000425926,
1086,0.000552758,1086,-0.000670085,1086,-0.000754025,1086,-0.000689314,1086,-0.000414857,
1084,0.000571135,1084,-0.00065406,1084,-0.000817796,1084,-0.000601639,1084,-0.000376995,
1082,0.000565977,1082,-0.000681043,1082,-0.000893079,1082,-0.000606189,1082,-0.000412271,
1080,0.000586791,1080,-0.000675099,1080,-0.00094655,1080,-0.000496778,1080,-0.000337577,
1078,0.000544749,1078,-0.000676753,1078,-0.00103798,1078,-0.000494865,1078,-0.000350199,
1076,0.000532464,1076,-0.000709524,1076,-0.00112634,1076,-0.00046606,1076,-0.000359356,
1074,0.000511031,1074,-0.000666104,1074,-0.00110764,1074,-0.000390702,1074,-0.000329352,
1072,0.000571291,1072,-0.000650545,1072,-0.00107077,1072,-0.000347716,1072,-0.000328576,
1070,0.000541095,1070,-0.000661142,1070,-0.0011442,1070,-0.000315539,1070,-0.000320091,
1068,0.000535937,1068,-0.000601794,1068,-0.00115722,1068,-0.000208384,1068,-0.000279323,
1066,0.000566184,1066,-0.000570928,1066,-0.00113207,1066,-0.000185097,1066,-0.000274201,
1064,0.000586376,1064,-0.000563431,1064,-0.00113104,1064,-0.000157979,1064,-0.000273891,
1062,0.000532775,1062,-0.000614512,1062,-0.00114508,1062,-0.000133758,1062,-0.000191876,
1060,0.000550477,1060,-0.000604534,1060,-0.00109014,1060,-8.04979e-05,1060,-0.000169313,
1058,0.000538114,1058,-0.000620251,1058,-0.00112422,1058,-6.28983e-05,1058,-0.000161084,
1056,0.000528317,1056,-0.00059254,1056,-0.00113744,1056,-4.4211e-05,1056,-0.000115074,
1054,0.000502712,1054,-0.000566068,1054,-0.0011313,1054,-7.35099e-05,1054,-6.08278e-05,
1052,0.000509761,1052,-0.000547505,1052,-0.00111782,1052,-7.16464e-05,1052,-3.3754e-05,
1050,0.000616627,1050,-0.000460888,1050,-0.00105672,1050,-4.46769e-05,1050,9.56333e-05,
1048,0.000615616,1048,-0.000440408,1048,-0.00112112,1048,-0.000128479,1048,0.00013947,
1046,0.000573157,1046,-0.000439477,1046,-0.00108115,1046,-0.000115488,1046,0.000146695,
1044,0.000639751,1044,-0.000434667,1044,-0.00107382,1044,-9.68545e-05,1044,0.000233813,
1042,0.000577589,1042,-0.000447338,1042,-0.00113315,1042,-0.00014975,1042,0.000210297,
1040,0.000633736,1040,-0.00044439,1040,-0.00111709,1040,-0.000168174,1040,0.000262175,
1038,0.000646854,1038,-0.000400633,1038,-0.00108998,1038,-0.000143178,1038,0.000311313,
1036,0.000582151,1036,-0.000430374,1036,-0.00119403,1036,-0.000186856,1036,0.000227105,
1034,0.000550659,1034,-0.00045613,1034,-0.00115469,1034,-0.000231411,1034,0.000326882,
1032,0.000592908,1032,-0.000369753,1032,-0.00117116,1032,-0.000202743,1032,0.000356777,
1030,0.000597704,1030,-0.000367787,1030,-0.00108694,1030,-0.000161912,1030,0.00042523,
1028,0.000545164,1028,-0.000454165,1028,-0.00112634,1028,-0.000232135,1028,0.000372814,
1026,0.00059182,1026,-0.000348854,1026,-0.0010623,1026,-0.00020621,1026,0.000391417,
1024,0.00054843,1024,-0.000436632,1024,-0.0011615,1024,-0.000178887,1024,0.000352114,
1022,0.000546227,1022,-0.000421116,1022,-0.00111895,1022,-0.000141004,1022,0.000383903,
1020,0.000444171,1020,-0.000417754,1020,-0.0011583,1020,-0.000119421,1020,0.000357347,
1018,0.000416057,1018,-0.000524806,1018,-0.00122666,1018,-0.000141573,1018,0.000303956,
1016,0.000373333,1016,-0.000537474,1016,-0.00127937,1016,-0.000140124,1016,0.000258548,
1014,0.00038924,1014,-0.000517514,1014,-0.00121045,1014,-9.13161e-05,1014,0.000298723,
1012,0.000364809,1012,-0.000544455,1012,-0.0011931,1012,-0.000126978,1012,0.000319162,
1010,0.000402947,1010,-0.000510637,1010,-0.00106013,1010,-5.80842e-05,1010,0.000418182,
1008,0.000373436,1008,-0.000522065,1008,-0.00102444,1008,-6.83384e-06,1008,0.000447436,
1006,0.000456195,1006,-0.00046999,1006,-0.000970157,1006,6.90175e-05,1006,0.000579067,
1004,0.000407222,1004,-0.000490159,1004,-0.000964372,1004,6.95353e-05,1004,0.00064141,
1002,0.000396081,1002,-0.000471697,1002,-0.000908992,1002,7.67069e-05,1002,0.000668216,
1000,0.000376493,1000,-0.000534061,1000,-0.000957501,1000,5.32248e-05,1000,0.000700832,
998,0.000378929,998,-0.000512188,998,-0.000898194,998,9.19049e-05,998,0.000843147,
996,0.000410694,996,-0.000480437,996,-0.000873239,996,0.00015713,996,0.000928512,
994,0.000413129,994,-0.00046456,994,-0.000855775,994,0.000156509,994,0.00101031,
992,0.000403206,992,-0.000440666,992,-0.000838207,992,0.000175102,992,0.00106587,
990,0.000365249,990,-0.000519324,990,-0.000888326,990,0.000109693,990,0.00108562,
988,0.000366985,988,-0.00051467,988,-0.000871069,988,0.000201699,988,0.00115662,
986,0.000388075,986,-0.000550039,986,-0.000902172,986,0.000182819,986,0.00120262,
984,0.000369913,984,-0.000490779,984,-0.000854276,984,0.000328514,984,0.001242,
982,0.000323307,982,-0.000545282,982,-0.000934874,982,0.000254741,982,0.00111818,
980,0.000367192,980,-0.000525168,980,-0.000876339,980,0.000356311,980,0.00122494,
978,0.000356285,978,-0.000521496,978,-0.000871741,978,0.000272302,978,0.00116324,
976,0.000286808,976,-0.00053675,976,-0.000953472,976,0.000169042,976,0.00111253,
974,0.0002708,974,-0.00052977,974,-0.00103508,974,5.11019e-05,974,0.000984134,
972,0.000148637,972,-0.000639223,972,-0.00125283,972,-0.000200001,972,0.000702673,
970,4.95486e-05,970,-0.00073392,970,-0.00146397,970,-0.000591867,970,0.00030608,
968,-3.09585e-05,968,-0.000763741,968,-0.00171997,968,-0.000961014,968,-0.00011554,
966,-5.66348e-05,966,-0.000849523,966,-0.00190552,966,-0.00116821,966,-0.000330179,
964,8.25582e-05,964,-0.000737176,964,-0.00171709,964,-0.00100094,964,-0.000103376,
962,0.00025614,962,-0.000577443,962,-0.00145252,962,-0.000600657,962,0.000493175,
960,0.000482653,960,-0.000370219,960,-0.0010198,960,-7.54252e-05,960,0.00105845,
958,0.000707703,958,-0.000160308,958,-0.000705647,958,0.000257098,958,0.00154812,
956,0.00083796,956,-7.92038e-05,956,-0.000513791,956,0.000397247,956,0.00183455,
954,0.000788762,954,-6.23289e-05,954,-0.000580803,954,0.000305899,954,0.0017815,
952,0.00081327,952,-8.9815e-05,952,-0.000571859,952,0.000238993,952,0.00178171,
950,0.000763089,950,-0.000146386,950,-0.000594763,950,0.000168524,950,0.00175743,
948,0.000757022,948,-0.000176662,948,-0.00061384,948,0.0001244,948,0.00178797,
946,0.000786402,946,-0.000215577,946,-0.000562655,946,0.000154929,946,0.00181435,
944,0.000773307,944,-0.000274201,944,-0.000520565,944,0.000125565,944,0.0018613,
942,0.00078202,942,-0.00029174,942,-0.000456699,942,0.000166971,942,0.00188181,
940,0.000785054,940,-0.000357286,940,-0.000441339,940,0.000152469,940,0.00191143,
938,0.000759407,938,-0.000371253,938,-0.000430891,938,0.000143406,938,0.00192541,
936,0.000776159,936,-0.00036189,936,-0.000385064,936,0.000163268,936,0.00198748,
934,0.000728057,934,-0.000376581,934,-0.000361114,934,0.000188284,934,0.00199508,
932,0.000717063,932,-0.000373891,932,-0.000356769,932,0.000191106,932,0.00202179,
930,0.000711204,930,-0.000420081,930,-0.000316884,930,0.000161222,930,0.00207705,
928,0.000712111,928,-0.000429908,928,-0.000255626,928,0.000197037,928,0.00212057,
926,0.00073581,926,-0.000413771,926,-0.000269389,926,0.000212032,926,0.00222763,
924,0.000779582,924,-0.000383978,924,-0.000193998,924,0.000251762,924,0.00230626,
922,0.000743771,922,-0.000394271,922,-0.000174178,922,0.000244096,922,0.00234952,
920,0.000699484,920,-0.000441804,920,-0.000213145,920,0.000246919,920,0.00239007,
918,0.00075295,918,-0.000376271,918,-0.000168226,918,0.000231845,918,0.00246558,
916,0.000757981,916,-0.000411082,916,-0.00010643,916,0.000265386,916,0.00252401,
914,0.000731895,914,-0.000383978,914,-6.65736e-05,914,0.000248447,914,0.00256772,
912,0.000720771,912,-0.000373788,912,-1.91552e-05,912,0.000299967,912,0.00270773,
910,0.000753573,910,-0.00033437,910,-3.37022e-05,910,0.000278985,910,0.00275569,
908,0.000757385,908,-0.000360856,908,-4.69028e-05,908,0.000317711,908,0.0028432,
906,0.000708351,906,-0.00038103,906,-5.32183e-05,906,0.000269997,906,0.0028771,
904,0.000738455,904,-0.000350199,904,-1.48583e-05,904,0.00032183,904,0.00298403,
902,0.000758681,902,-0.000336646,902,2.62492e-05,902,0.000307401,902,0.00314874,
900,0.000752198,900,-0.000323402,900,2.03986e-05,900,0.000325534,900,0.00326218,
898,-0.000733455,898,-0.000693242,898,-0.00211872,898,0.00283755,898,0.00430608,
896,0.000258885,896,0.000538736,896,0.00170966,896,0.00153116,896,0.0042608,
894,0.00169929,894,0.00152051,894,0.000131987,894,0.00198194,894,0.00530768,
892,0.00140713,892,0.00128826,892,0.000483716,892,0.00144355,892,0.00681063,
890,0.000844107,890,0.00259874,890,0.00308385,890,0.00300541,890,0.00618872,
888,0.00381323,888,0.00227381,888,0.00125101,888,0.00311028,888,0.00739072,
886,0.0027398,886,0.00309464,886,0.000842032,886,0.00329189,886,0.00728715,
884,0.000945841,884,0.000917176,884,0.000235134,884,0.00119436,884,0.00426906,
882,0.00319362,882,0.00282551,882,0.00273795,882,0.00334703,882,0.00866061,
880,0.00250562,880,0.00261686,880,0.00221862,880,0.00245822,880,0.00578153,
878,0.00230296,878,0.00128268,878,0.00154641,878,0.00259434,878,0.0070282,
876,2.90191e-05,876,0.0017966,876,0.000858294,876,0.00159556,876,0.00613813,
874,0.00185238,874,0.00278995,874,0.00177048,874,0.00356156,874,0.00757831,
872,0.000682398,872,0.00216932,872,0.00197882,872,0.00229588,872,0.00645264,
870,0.000539462,870,0.00170626,870,0.00110921,870,0.00216383,870,0.00603346,
868,0.00131524,868,0.00296694,868,0.00194642,868,0.00278206,868,0.00711389,
866,0.00104052,866,0.00177531,866,0.000966829,866,0.00174142,866,0.0063547,
864,0.001807,864,0.0019561,864,0.0024106,864,0.00236196,864,0.00730423,
862,0.00220384,862,0.00240386,862,0.00151082,862,0.00272052,862,0.00771167,
860,0.00142331,860,0.00172572,860,0.00131508,860,0.00233567,860,0.00708342,
858,0.00156994,858,0.00291075,858,0.00187232,858,0.00254442,858,0.00775096,
856,0.00160252,856,0.00205825,856,0.00142344,856,0.00226083,856,0.0076163,
854,0.00212991,854,0.00238765,854,0.00166603,854,0.00277916,854,0.00830112,
852,0.0014551,852,0.00234051,852,0.0016104,852,0.00279594,852,0.00851051,
850,0.00167842,850,0.00242409,850,0.00202353,850,0.00266861,850,0.00870485,
848,0.00146791,848,0.00245673,848,0.00170186,848,0.00265356,848,0.0085211,
846,0.00193907,846,0.00265728,846,0.00171397,846,0.00290134,846,0.00880519,
844,0.00173295,844,0.00310856,844,0.00181604,844,0.00296892,844,0.00898639,
842,0.00191777,842,0.00239145,842,0.00155028,842,0.00292443,842,0.00900793,
840,0.00186876,840,0.00285879,840,0.00183806,840,0.00297637,840,0.00922015,
838,0.00181453,838,0.00296477,838,0.00180164,838,0.00301987,838,0.00945599,
836,0.00197825,836,0.00290827,836,0.00207523,836,0.00313967,836,0.00939539,
834,0.00191598,834,0.00289423,834,0.00176343,834,0.00314978,834,0.00989946,
832,0.00201697,832,0.00281392,832,0.00197999,832,0.00322658,832,0.00997695,
830,0.00199929,830,0.00295109,830,0.0019697,830,0.00313508,830,0.0102845,
828,0.0020332,828,0.00306106,828,0.0020693,828,0.00318282,828,0.0105374,
826,0.00220785,826,0.00296785,826,0.00202844,826,0.00322546,826,0.0106679,
824,0.00206709,824,0.00282614,824,0.00199601,824,0.00321135,824,0.010865,
822,0.00203541,822,0.00285008,822,0.00177404,822,0.00312585,822,0.0108096,
820,0.00222219,820,0.00296673,820,0.00180793,820,0.00338415,820,0.0110406,
818,0.00198254,818,0.00276369,818,0.00190521,818,0.00314134,818,0.011125,
816,0.00237221,816,0.00317299,816,0.00219063,816,0.00342736,816,0.0114596,
814,0.00211461,814,0.00299193,814,0.00197269,814,0.00325443,814,0.0114281,
812,0.0020124,812,0.00289178,812,0.0020771,812,0.00328164,812,0.0118047,
810,0.00198174,810,0.00288273,810,0.00205791,810,0.0032276,810,0.0118229,
808,0.00206972,808,0.00300254,808,0.00207682,808,0.00341233,808,0.0121368,
806,0.00199001,806,0.00296764,806,0.00203812,806,0.00329069,806,0.0124369,
804,0.00215298,804,0.00286679,804,0.0020403,804,0.00342399,804,0.0126812,
802,0.00196265,802,0.00278927,802,0.00205739,802,0.0034385,802,0.0125031,
800,0.00207776,800,0.00285253,800,0.0019969,800,0.00346569,800,0.0128987,
798,0.00206129,798,0.00271242,798,0.00185878,798,0.00414754,798,0.0130223,
796,0.00223686,796,0.00289472,796,0.00211573,796,0.00447623,796,0.0134061,
794,0.00209287,794,0.00272568,794,0.00198704,794,0.00452961,794,0.0136427,
792,0.0019212,792,0.00261496,792,0.002044,792,0.00455912,792,0.0137087,
790,0.00215181,790,0.0027492,790,0.00211381,790,0.00487225,790,0.0141196,
788,0.00215348,788,0.0027249,788,0.00210808,788,0.00474756,788,0.0143205,
786,0.00193043,786,0.00254033,786,0.00197841,786,0.0048009,786,0.0143575,
784,0.00184204,784,0.00268987,784,0.00207547,784,0.00492576,784,0.0147063,
782,0.00189728,782,0.00264379,782,0.00207885,782,0.00491186,782,0.0148899,
780,0.00225581,780,0.0028769,780,0.00227748,780,0.00513566,780,0.0152079,
778,0.00193098,778,0.00258892,778,0.00207547,778,0.00492364,778,0.0153416,
776,0.00205664,776,0.00270169,776,0.00214414,776,0.00521495,776,0.0155964,
774,0.00197893,774,0.00254275,774,0.00218334,774,0.00504436,774,0.0158403,
772,0.00205247,772,0.00281426,772,0.00224797,772,0.00515915,772,0.0161924,
770,0.00207489,770,0.00272329,770,0.00227256,770,0.00522022,770,0.0164542,
768,0.00206881,768,0.00259179,768,0.00218457,768,0.00526636,768,0.0166598,
766,0.00208317,766,0.00247824,766,0.00221446,766,0.00530595,766,0.016729,
764,0.00194884,764,0.0023979,764,0.00210431,764,0.00516201,764,0.0170942,
762,0.00198106,762,0.00249414,762,0.00220624,762,0.00517508,762,0.0172939,
760,0.00198876,760,0.00242549,760,0.00214216,760,0.00524901,760,0.0175488,
758,0.00189065,758,0.00241493,758,0.00214271,758,0.00503532,758,0.017675,
756,0.00202821,756,0.00243552,756,0.00220616,756,0.00523856,756,0.0180957,
754,0.00194005,754,0.00248204,754,0.00224274,754,0.00519151,754,0.0183234,
752,0.0019438,752,0.00242734,752,0.00208881,752,0.00509409,752,0.0184237,
750,0.00185987,750,0.00238616,750,0.00213789,750,0.00494684,750,0.0186689,
748,0.00177477,748,0.0022487,748,0.00203208,748,0.00491592,748,0.0187382,
746,0.00193927,746,0.00250365,746,0.00216339,746,0.00493236,746,0.0190993,
744,0.00190017,744,0.00236326,744,0.00211552,744,0.00486683,744,0.0191084,
742,0.00176237,742,0.0023263,742,0.00200834,742,0.00472432,742,0.0193981,
740,0.00178462,740,0.00232242,740,0.0020441,740,0.00473748,740,0.0195719,
738,0.00190654,738,0.00236177,738,0.00210379,738,0.00474324,738,0.0198984,
736,0.00191132,736,0.0023701,736,0.00200636,736,0.00477839,736,0.0201801,
734,0.001871,734,0.0023581,734,0.00204584,734,0.00474348,734,0.0202206,
732,0.00181906,732,0.00222976,732,0.00190526,732,0.00454795,732,0.0203237,
730,0.00186832,730,0.0023528,730,0.00214432,730,0.0046769,730,0.0206461,
728,0.00175771,728,0.00223507,728,0.00189336,728,0.00445115,728,0.0206669,
726,0.00183393,726,0.00227699,726,0.00207469,726,0.00448706,726,0.020863,
724,0.00176141,724,0.00217674,724,0.00197851,724,0.00444448,724,0.0210983,
722,0.0017757,722,0.00223192,722,0.00198418,722,0.00446428,722,0.0211902,
720,0.00167585,720,0.00217426,720,0.00189525,720,0.00440028,720,0.021343,
718,0.00177924,718,0.00214973,718,0.0019037,718,0.0043682,718,0.0215075,
716,0.00177674,716,0.00204839,716,0.0018227,716,0.00432827,716,0.0215796,
714,0.00178103,714,0.00207573,714,0.00188166,714,0.00440188,714,0.0217767,
712,0.00180622,712,0.00213696,712,0.00179668,712,0.00432608,712,0.0218189,
710,0.00180606,710,0.00201359,710,0.00184926,710,0.0042991,710,0.0219916,
708,0.00177898,708,0.00202985,708,0.0017402,708,0.00435364,708,0.0220367,
706,0.00183099,706,0.00210772,706,0.00178571,706,0.00436569,706,0.022148,
704,0.00186884,704,0.00208017,704,0.00182374,704,0.00439302,704,0.0223299,
702,0.00181194,702,0.00207133,702,0.00173799,702,0.00433999,702,0.0223901,
700,0.001798,700,0.00199352,700,0.00173344,700,0.00430945,700,0.0224728,
698,0.00189068,698,0.00214333,698,0.00184534,698,0.00447735,698,0.022681,
696,0.00182041,696,0.00210205,696,0.00173848,696,0.00441611,696,0.0227658,
694,0.00193459,694,0.00213873,694,0.0018464,694,0.00455357,694,0.0228834,
692,0.00202621,692,0.00215189,692,0.00186356,692,0.00453498,692,0.0230149,
690,0.00191296,690,0.00204774,690,0.00178644,690,0.00454018,690,0.0230049,
688,0.00198878,688,0.00219851,688,0.00182626,688,0.00466359,688,0.0230882,
686,0.00217242,686,0.00228276,686,0.00195589,686,0.00474444,686,0.0232807,
684,0.00220915,684,0.00239993,684,0.00204257,684,0.0048283,684,0.0233311,
682,0.00229538,682,0.0024892,682,0.0021848,682,0.00501243,682,0.0233904,
680,0.00252205,680,0.0027019,680,0.00225994,680,0.00520238,680,0.0234712,
678,0.00260902,678,0.00282916,678,0.0024111,678,0.00523958,678,0.0236638,
676,0.00269065,676,0.00292774,676,0.00248214,676,0.00536211,676,0.0236617,
674,0.00281236,674,0.00306917,674,0.00259402,674,0.00553567,674,0.0238108,
672,0.00276645,672,0.00309109,672,0.00264903,672,0.00549042,672,0.0237941,
670,0.0028782,670,0.00309506,670,0.00261465,670,0.00556647,670,0.0239247,
668,0.00271292,668,0.00294348,668,0.00247089,668,0.00553588,668,0.0238883,
666,0.00258455,666,0.00281559,666,0.00236349,666,0.00537666,666,0.0239052,
664,0.00241357,664,0.00264616,664,0.002246,664,0.00533792,664,0.0239778,
662,0.00228831,662,0.00259876,662,0.00211256,662,0.00522329,662,0.0240795,
660,0.00221316,660,0.00251062,660,0.00202433,660,0.00518011,660,0.024131,
658,0.00210382,658,0.00230236,658,0.00190391,658,0.00512073,658,0.0240816,
656,0.00218366,656,0.00236729,656,0.00192508,656,0.00521105,656,0.0242405,
654,0.00213459,654,0.00237229,654,0.00192778,654,0.00517618,654,0.0242052,
652,0.00202985,652,0.00228245,652,0.00179039,652,0.00509668,652,0.0241134,
650,0.00208192,650,0.00230631,650,0.00178815,650,0.00520343,650,0.0241793,
648,0.00209784,648,0.00232401,648,0.00180546,648,0.00519722,648,0.0241167,
646,0.00213051,646,0.00230082,646,0.00178987,646,0.00516531,646,0.0240456,
644,0.0021618,644,0.00238856,644,0.00186133,644,0.00523057,644,0.0239904,
642,0.00216966,642,0.00239527,642,0.00187498,642,0.00527273,642,0.0239499,
640,0.00216466,640,0.00236261,640,0.00186499,640,0.00522703,640,0.0238501,
638,0.00227857,638,0.0024527,638,0.00196587,638,0.00529903,638,0.0238503,
636,0.00234998,636,0.00251198,636,0.00198891,636,0.00531014,636,0.0237703,
634,0.00235537,634,0.00248927,634,0.00192435,634,0.00526167,634,0.0236068,
632,0.00263595,632,0.00272008,632,0.00200397,632,0.0054653,632,0.0235979,
630,0.00262116,630,0.00272477,630,0.00197394,630,0.00535129,630,0.0234389,
628,0.00280613,628,0.00284227,628,0.00206254,628,0.00536717,628,0.0233642,
626,0.0028617,626,0.00293066,626,0.00209115,626,0.00541885,626,0.0232138,
624,0.00303364,624,0.0030529,624,0.00215361,624,0.00546276,624,0.0230802,
622,0.00322303,622,0.00319724,622,0.00226322,622,0.00552216,622,0.0229929,
620,0.00344515,620,0.00335319,620,0.00233999,620,0.00554183,620,0.0228671,
618,0.00352148,618,0.00341173,618,0.0023452,618,0.00548009,618,0.0226648,
616,0.00373725,616,0.00366292,616,0.00249193,616,0.00557083,616,0.0226875,
614,0.00395897,614,0.00381268,614,0.00252226,614,0.00561467,614,0.022542,
612,0.00407607,612,0.00398902,612,0.00262259,612,0.00565007,612,0.0223519,
610,0.0043585,610,0.00429426,610,0.00278562,610,0.00568191,610,0.0223212,
608,0.00453082,608,0.00437552,608,0.00285522,608,0.00567186,608,0.0221878,
606,0.00490139,606,0.00470977,606,0.00299133,606,0.00574533,606,0.0220101,
604,0.00511253,604,0.00494564,604,0.00303056,604,0.00568157,604,0.0218435,
602,0.00543049,602,0.00517558,602,0.00318157,602,0.00570667,602,0.0217426,
600,0.00582036,600,0.0054701,600,0.00331794,600,0.00570554,600,0.0216635,
598,0.00626887,598,0.00589427,598,0.00348883,598,0.0057899,598,0.0215747,
596,0.00668977,596,0.00620857,596,0.00356556,596,0.00570517,596,0.0213842,
594,0.00724082,594,0.00666808,594,0.00368448,594,0.00565374,594,0.0212235,
592,0.00795442,592,0.00721266,592,0.00386019,592,0.00571897,592,0.0210994,
590,0.00881275,590,0.00790707,590,0.00406494,590,0.00576319,590,0.020947,
588,0.00991344,588,0.00873889,588,0.00429217,588,0.00577707,588,0.0207534,
586,0.0112679,586,0.0097583,586,0.00468172,586,0.00587522,586,0.0207204,
584,0.0129981,584,0.0109819,584,0.00501112,584,0.00591363,584,0.0205874,
582,0.015137,582,0.0125371,582,0.0054599,582,0.00603281,582,0.0204287,
580,0.0178059,580,0.0145749,580,0.00608917,580,0.00604063,580,0.0203168,
578,0.0211771,578,0.0169058,578,0.00668288,578,0.0061516,578,0.0200945,
576,0.0255436,576,0.0200741,576,0.00738024,576,0.00623457,576,0.0200934,
574,0.0309551,574,0.0239602,574,0.0083093,574,0.00639384,574,0.0201104,
572,0.0377857,572,0.0288312,572,0.00943676,572,0.00658366,572,0.01997,
570,0.0461237,570,0.0347437,570,0.0105177,570,0.00657788,570,0.0198232,
568,0.0562213,568,0.0418425,568,0.0120585,568,0.00665297,568,0.0196049,
566,0.0685657,566,0.0508239,566,0.0137481,566,0.00688873,566,0.0195403,
564,0.0831165,564,0.0614981,564,0.0158349,564,0.0071135,564,0.0194653,
562,0.0997454,562,0.0737689,562,0.0181152,562,0.00730118,562,0.0193733,
560,0.118835,560,0.0880354,560,0.0207816,560,0.00749547,560,0.0194577,
558,0.13977,558,0.104061,558,0.0238876,558,0.0076844,558,0.0194559,
556,0.162843,556,0.121925,556,0.0272463,556,0.00794693,556,0.0194048,
554,0.18807,554,0.141838,554,0.0313292,554,0.0083701,554,0.0195289,
552,0.214282,552,0.162947,552,0.0357234,552,0.0087404,552,0.0195734,
550,0.241749,550,0.185557,550,0.0405854,550,0.0092664,550,0.0197177,
548,0.269967,548,0.209238,548,0.0458939,548,0.00979746,548,0.019868,
546,0.297999,546,0.233397,546,0.0515706,546,0.0103886,546,0.0200729,
544,0.32648,544,0.258319,544,0.0577889,544,0.0110255,544,0.0202401,
542,0.354031,542,0.283116,542,0.064319,542,0.0118362,542,0.0204734,
540,0.380492,540,0.307733,540,0.0712846,540,0.0127062,540,0.0207327,
538,0.406278,538,0.332334,538,0.0787894,538,0.0136871,538,0.0210817,
536,0.430822,536,0.356096,536,0.0867216,536,0.0147461,536,0.0214573,
534,0.454638,534,0.379613,534,0.094995,534,0.0160623,534,0.0219579,
532,0.477336,532,0.402393,532,0.103582,532,0.0174457,532,0.022445,
530,0.499214,530,0.4247,530,0.112627,530,0.0190046,530,0.0231321,
528,0.520621,528,0.446834,528,0.122318,528,0.0209091,528,0.024072,
526,0.54103,526,0.46809,526,0.132028,526,0.0228578,526,0.0248935,
524,0.560959,524,0.489106,524,0.142163,524,0.0252236,524,0.0259745,
522,0.580606,522,0.509905,522,0.152754,522,0.0277127,522,0.0272262,
520,0.599547,520,0.529925,520,0.163266,520,0.0304029,520,0.0286064,
518,0.617908,518,0.549629,518,0.17417,518,0.033355,518,0.0300846,
516,0.635663,516,0.568968,516,0.185349,516,0.0365667,516,0.0318876,
514,0.652749,514,0.587704,514,0.196712,514,0.0400915,514,0.0338093,
512,0.668884,512,0.605862,512,0.208417,512,0.0438461,512,0.0359732,
510,0.684148,510,0.623434,510,0.220354,510,0.0479566,510,0.0383427,
508,0.698208,508,0.640282,508,0.232656,508,0.0524023,508,0.0409681,
506,0.710931,506,0.65602,506,0.24501,506,0.0571013,506,0.0437174,
504,0.722263,504,0.67079,504,0.257717,504,0.0621096,504,0.0466767,
502,0.732252,502,0.684611,502,0.270762,502,0.0674265,502,0.049831,
500,0.740681,500,0.697054,500,0.284025,500,0.0730237,500,0.0531981,
498,0.747573,498,0.708439,498,0.297341,498,0.0787938,498,0.0566081,
496,0.753102,496,0.718558,496,0.311042,496,0.0848816,496,0.0601813,
494,0.757178,494,0.727387,494,0.324572,494,0.0910601,494,0.0637881,
492,0.759997,492,0.735247,492,0.338765,492,0.0975514,492,0.0676491,
490,0.761509,490,0.74183,490,0.35256,490,0.104146,490,0.0715081,
488,0.761977,488,0.747307,488,0.366275,488,0.110898,488,0.075557,
486,0.76129,486,0.751814,486,0.379942,486,0.117916,486,0.0797314,
484,0.759727,484,0.755286,484,0.393515,484,0.125021,484,0.0840239,
482,0.757009,482,0.757645,482,0.406952,482,0.132225,482,0.0885125,
480,0.753526,480,0.759161,480,0.420185,480,0.139707,480,0.0932024,
478,0.749044,478,0.759652,478,0.433259,478,0.147133,478,0.0980622,
476,0.743775,476,0.759298,476,0.446013,476,0.154797,476,0.103056,
474,0.737871,474,0.758181,474,0.458676,474,0.162623,474,0.108243,
472,0.731251,472,0.756319,472,0.47122,472,0.170502,472,0.113834,
470,0.723685,470,0.753653,470,0.48357,470,0.178482,470,0.119406,
468,0.715597,468,0.750308,468,0.49583,468,0.186656,468,0.125256,
466,0.706878,466,0.746334,466,0.507928,466,0.194986,466,0.131426,
464,0.697506,464,0.741463,464,0.519656,464,0.203412,464,0.137752,
462,0.687442,462,0.735948,462,0.530945,462,0.211933,462,0.144258,
460,0.67707,460,0.729753,460,0.541506,460,0.220608,460,0.151009,
458,0.666031,458,0.722702,458,0.551162,458,0.229368,458,0.158077,
456,0.654482,456,0.714828,456,0.55987,456,0.238448,456,0.165475,
454,0.642629,454,0.706299,454,0.567153,454,0.24733,454,0.173232,
452,0.630289,452,0.696979,452,0.573384,452,0.256632,452,0.18138,
450,0.61769,450,0.686897,450,0.578356,450,0.265923,450,0.189935,
448,0.604816,448,0.676394,448,0.582237,448,0.275333,448,0.198794,
446,0.591685,446,0.665333,446,0.585411,446,0.285031,446,0.208467,
444,0.578462,444,0.654026,444,0.587848,444,0.294744,444,0.218243,
442,0.565134,442,0.642508,442,0.58972,442,0.304441,442,0.228564,
440,0.552058,440,0.630858,440,0.591085,440,0.314122,440,0.239132,
438,0.539061,438,0.619135,438,0.591965,438,0.323277,438,0.2495251,
436,0.526042,436,0.607259,436,0.592591,436,0.332232,436,0.259935,
434,0.51325,434,0.595451,434,0.592482,434,0.340884,434,0.269788,
432,0.500724,432,0.583699,432,0.591844,432,0.348305,432,0.279185,
430,0.488376,430,0.572029,430,0.590367,430,0.354972,430,0.288011,
428,0.476034,428,0.559922,428,0.587862,428,0.36066,428,0.295964,
426,0.463702,426,0.547693,426,0.584311,426,0.36564,426,0.303606,
424,0.451411,424,0.535325,424,0.579717,424,0.369826,424,0.31063,
422,0.439083,422,0.52266,422,0.573703,422,0.373514,422,0.317346,
420,0.426878,420,0.509973,420,0.567154,420,0.376644,420,0.32395,
418,0.414927,418,0.497315,418,0.559949,418,0.3797,418,0.330671,
416,0.403008,416,0.484616,416,0.55234,416,0.382736,416,0.338006,
414,0.391686,414,0.472173,414,0.544596,414,0.385617,414,0.345527,
412,0.380608,412,0.46004,412,0.536736,412,0.388541,412,0.353184,
410,0.369897,410,0.448011,410,0.528698,410,0.391242,410,0.360862,
408,0.359878,408,0.436565,408,0.520848,408,0.393951,408,0.368812,
406,0.349657,406,0.425038,406,0.512723,406,0.395905,406,0.376363,
404,0.34003,404,0.413903,404,0.504219,404,0.397471,404,0.38386,
402,0.330031,402,0.402521,402,0.495129,402,0.398101,402,0.391235,
400,0.320026,400,0.391201,400,0.48545,400,0.397698,400,0.397879,
398,0.310118,398,0.37962,398,0.474829,398,0.396174,398,0.404358,
396,0.300075,396,0.368056,396,0.463839,396,0.39416,396,0.410989,
394,0.290023,394,0.356223,394,0.452487,394,0.391301,394,0.417631,
392,0.2802,392,0.344838,392,0.441195,392,0.388451,392,0.424893,
390,0.270617,390,0.333418,390,0.429937,390,0.385322,390,0.432404,
388,0.26133,388,0.322243,388,0.419512,388,0.382689,388,0.440652,
386,0.252278,386,0.311754,386,0.409323,386,0.379836,386,0.448974,
384,0.243705,384,0.301762,384,0.399899,384,0.377497,384,0.457967,
382,0.235736,382,0.292463,382,0.39053,382,0.374948,382,0.467218,
380,0.228561,380,0.283919,380,0.381686,380,0.372589,380,0.476555,
378,0.221995,378,0.27628,378,0.373196,378,0.370096,378,0.48615,
376,0.216115,376,0.269239,376,0.364539,376,0.367324,376,0.495891,
374,0.211005,374,0.263227,374,0.356277,374,0.364419,374,0.505814,
372,0.20683,372,0.257915,372,0.348183,372,0.361442,372,0.516025,
370,0.203155,370,0.253787,370,0.340855,370,0.358836,370,0.526359,
368,0.200422,368,0.250539,368,0.334272,368,0.356458,368,0.536569,
366,0.198074,366,0.248058,366,0.328148,366,0.354373,366,0.546362,
364,0.196273,364,0.246447,364,0.323485,364,0.352877,364,0.555943,
362,0.194451,362,0.244842,362,0.31922,362,0.351235,362,0.56441,
360,0.192637,360,0.243789,360,0.31622,360,0.349885,360,0.572168,
358,0.190899,358,0.242537,358,0.313261,358,0.348698,358,0.578868,
356,0.18899,356,0.241538,356,0.31115,356,0.347711,356,0.584836,
354,0.186983,354,0.240379,354,0.308858,354,0.34671,354,0.589625,
352,0.185319,352,0.239171,352,0.306873,352,0.346208,352,0.593973,
350,0.183487,350,0.237657,350,0.304519,350,0.345473,350,0.597409,
348,0.181779,348,0.235691,348,0.301993,348,0.344749,348,0.60007,
346,0.180081,346,0.233618,346,0.299411,346,0.344048,346,0.601873,
344,0.178404,344,0.231254,344,0.296837,344,0.343419,344,0.60333,
342,0.176889,342,0.228777,342,0.294383,342,0.343093,342,0.603903,
340,0.175408,340,0.226521,340,0.292569,340,0.343192,340,0.604689,
338,0.174305,338,0.224662,338,0.291389,338,0.344046,338,0.605534,
336,0.172701,336,0.222496,336,0.290116,336,0.344647,336,0.60549,
334,0.171544,334,0.221006,334,0.289495,334,0.345641,334,0.605573,
332,0.170127,332,0.218919,332,0.288343,332,0.345753,332,0.603845,
330,0.168769,330,0.216725,330,0.286911,330,0.345534,330,0.601618,
328,0.16733,328,0.214278,328,0.284466,328,0.345057,328,0.598688,
326,0.165956,326,0.211027,326,0.281556,326,0.3444,326,0.59498,
324,0.164132,324,0.207919,324,0.278449,324,0.344166,324,0.591597,
322,0.163038,322,0.205136,322,0.276255,322,0.34438,322,0.588382,
320,0.161538,320,0.20257,320,0.274393,320,0.344403,320,0.584959,
318,0.160429,318,0.200446,318,0.273108,318,0.344688,318,0.581669,
316,0.159229,316,0.198277,316,0.272121,316,0.344854,316,0.578166,
314,0.15836,314,0.196519,314,0.271419,314,0.344715,314,0.574929,
312,0.157301,312,0.194521,312,0.271525,312,0.344942,312,0.571702,
310,0.156208,310,0.192683,310,0.27259,310,0.345439,310,0.569105,
308,0.155423,308,0.190888,308,0.274725,308,0.346231,308,0.566299,
306,0.154848,306,0.189991,306,0.277491,306,0.346788,306,0.563788,
304,0.15429,304,0.189101,304,0.279985,304,0.346865,304,0.560672,
302,0.154202,302,0.188738,302,0.282784,302,0.347012,302,0.557229,
300,0.153931,300,0.188805,300,0.285721,300,0.346915,300,0.554097,
298,0.155207,298,0.190705,298,0.292543,298,0.348677,298,0.554343,
296,0.155836,296,0.191199,296,0.300352,296,0.348585,296,0.551498,
294,0.157563,294,0.192956,294,0.312235,294,0.34822,294,0.549386,
292,0.159802,292,0.196008,292,0.325361,292,0.34888,292,0.549001,
290,0.162899,290,0.201533,290,0.331062,290,0.350172,290,0.550385,
288,0.167454,288,0.209617,288,0.331159,288,0.35453,288,0.556272,
286,0.173615,286,0.215524,286,0.332472,286,0.362332,286,0.567491,
284,0.184511,284,0.227194,284,0.349451,284,0.379805,284,0.590461,
282,0.209585,282,0.265697,282,0.414476,282,0.429464,282,0.651519,
280,0.271316,280,0.363506,280,0.582421,280,0.554818,280,0.801645,
278,0.430975,278,0.60565,278,0.982918,278,0.863745,278,1.16132,
276,0.842434,276,1.19191,276,1.88691,276,1.59205,276,1.98556,
274,1.78594,274,2.4703,274,3.69684,274,3.12477,274,3.67433,
272,3.09227,272,4.35459,272,5.23827,272,4.95096,272,5.28264,
270,2.71109,270,4.1835,270,5.4451,270,5.27485,270,5.47687,
268,3.15122,268,4.7002,268,5.43879,268,5.25795,268,5.4268,
266,4.05243,266,5.40443,266,5.71125,266,5.63632,266,5.79429,
264,4.13165,264,5.14132,264,5.31554,264,5.16978,264,5.23913,
262,3.81713,262,5.04634,262,5.23483,262,5.11394,262,5.2406,
260,3.70251,260,4.92079,260,5.09689,260,4.99594,260,5.11098,
258,3.66042,258,4.82697,258,4.94229,258,4.85786,258,4.94774,
256,3.17208,256,4.52546,256,4.79143,256,4.7301,256,4.79421,
254,2.75121,254,4.11237,254,4.64961,254,4.55191,254,4.61835,
252,2.59685,252,3.91352,252,4.46923,252,4.39528,252,4.469,
250.667,2.34836,250.667,3.54907,250.667,4.36716,250.667,4.20785,250.667,4.34474,

non-imine polymer t=48hrs FeCl3 0uM,
non-imine polymer t=48hrs FeCl3 0uM
Collection Time: 2024-09-12 8:54:20 AM
Operator Name  :
Scan Version 6.4.0.1610
Parameter List :
Instrument  Cary 7000
Instrument Version  3.07
Method Log     :
Method Name    :
Date/Time stamp: 2024-09-12 8:41:50 AM
Method Modifications:
ConcentrationReportSelected Changed: 2024-09-12 8:41:51 AM, Old:Choice 0, New:Choice 1
ConcentrationReportSelected Changed: 2024-09-12 8:41:51 AM, Old:ON, New:Choice 0
MCAReportSelected Changed: 2024-09-12 8:41:51 AM, Old:Choice 0, New:Choice 1
MCAReportSelected Changed: 2024-09-12 8:41:51 AM, Old:ON, New:Choice 0
X Start nm Changed: 2024-09-12 8:45:07 AM, Old:800.000, New:1200.000
X Stop nm Changed: 2024-09-12 8:45:07 AM, Old:200.000, New:250.000
UVVIS Scan Rate nm Changed: 2024-09-12 8:45:07 AM, Old:  602.007, New:  600.000
NIR Scan Rate nm Changed: 2024-09-12 8:45:07 AM, Old:    0.004, New:   12.000
Common Interval nm Changed: 2024-09-12 8:45:07 AM, Old:    1.000, New:    0.667
Source changeover Changed: 2024-09-12 8:45:07 AM, Old:   350.00, New:   300.00
Detector changeover Changed: 2024-09-12 8:45:07 AM, Old:   800.00, New:   900.00
Grating changeover Changed: 2024-09-12 8:45:07 AM, Old:   800.00, New:   900.00
Baseline Correction Changed: 2024-09-12 8:45:07 AM, Old:0, New:2
Sipper Type Changed: 2024-09-12 8:45:07 AM, Old:Internal RSA, New:External sipper
End Method Modifications
<Current Wavelength> , 250.000
<SBW (nm)> , 2.00
<Energy> , 52.48
<Slit Height> , Full

non-imine polymer t=48hrs FeCl3 5uM,
non-imine polymer t=48hrs FeCl3 5uM
Collection Time: 2024-09-12 8:58:32 AM
Operator Name  :
Scan Version 6.4.0.1610
Parameter List :
Instrument  Cary 7000
Instrument Version  3.07
Method Log     :
Method Name    :
Date/Time stamp: 2024-09-12 8:41:50 AM
Method Modifications:
ConcentrationReportSelected Changed: 2024-09-12 8:41:51 AM, Old:Choice 0, New:Choice 1
ConcentrationReportSelected Changed: 2024-09-12 8:41:51 AM, Old:ON, New:Choice 0
MCAReportSelected Changed: 2024-09-12 8:41:51 AM, Old:Choice 0, New:Choice 1
MCAReportSelected Changed: 2024-09-12 8:41:51 AM, Old:ON, New:Choice 0
X Start nm Changed: 2024-09-12 8:45:07 AM, Old:800.000, New:1200.000
X Stop nm Changed: 2024-09-12 8:45:07 AM, Old:200.000, New:250.000
UVVIS Scan Rate nm Changed: 2024-09-12 8:45:07 AM, Old:  602.007, New:  600.000
NIR Scan Rate nm Changed: 2024-09-12 8:45:07 AM, Old:    0.004, New:   12.000
Common Interval nm Changed: 2024-09-12 8:45:07 AM, Old:    1.000, New:    0.667
Source changeover Changed: 2024-09-12 8:45:07 AM, Old:   350.00, New:   300.00
Detector changeover Changed: 2024-09-12 8:45:07 AM, Old:   800.00, New:   900.00
Grating changeover Changed: 2024-09-12 8:45:07 AM, Old:   800.00, New:   900.00
Baseline Correction Changed: 2024-09-12 8:45:07 AM, Old:0, New:2
Sipper Type Changed: 2024-09-12 8:45:07 AM, Old:Internal RSA, New:External sipper
End Method Modifications
<Current Wavelength> , 250.000
<SBW (nm)> , 2.00
<Energy> , 52.48
<Slit Height> , Full

non-imine polymer t=48hrs FeCl3 20uM,
non-imine polymer t=48hrs FeCl3 20uM
Collection Time: 2024-09-12 9:02:40 AM
Operator Name  :
Scan Version 6.4.0.1610
Parameter List :
Instrument  Cary 7000
Instrument Version  3.07
Method Log     :
Method Name    :
Date/Time stamp: 2024-09-12 8:41:50 AM
Method Modifications:
ConcentrationReportSelected Changed: 2024-09-12 8:41:51 AM, Old:Choice 0, New:Choice 1
ConcentrationReportSelected Changed: 2024-09-12 8:41:51 AM, Old:ON, New:Choice 0
MCAReportSelected Changed: 2024-09-12 8:41:51 AM, Old:Choice 0, New:Choice 1
MCAReportSelected Changed: 2024-09-12 8:41:51 AM, Old:ON, New:Choice 0
X Start nm Changed: 2024-09-12 8:45:07 AM, Old:800.000, New:1200.000
X Stop nm Changed: 2024-09-12 8:45:07 AM, Old:200.000, New:250.000
UVVIS Scan Rate nm Changed: 2024-09-12 8:45:07 AM, Old:  602.007, New:  600.000
NIR Scan Rate nm Changed: 2024-09-12 8:45:07 AM, Old:    0.004, New:   12.000
Common Interval nm Changed: 2024-09-12 8:45:07 AM, Old:    1.000, New:    0.667
Source changeover Changed: 2024-09-12 8:45:07 AM, Old:   350.00, New:   300.00
Detector changeover Changed: 2024-09-12 8:45:07 AM, Old:   800.00, New:   900.00
Grating changeover Changed: 2024-09-12 8:45:07 AM, Old:   800.00, New:   900.00
Baseline Correction Changed: 2024-09-12 8:45:07 AM, Old:0, New:2
Sipper Type Changed: 2024-09-12 8:45:07 AM, Old:Internal RSA, New:External sipper
End Method Modifications
<Current Wavelength> , 250.000
<SBW (nm)> , 2.00
<Energy> , 52.48
<Slit Height> , Full

non-imine polymer t=48hrs FeCl3 50uM,
non-imine polymer t=48hrs FeCl3 50uM
Collection Time: 2024-09-12 9:06:40 AM
Operator Name  :
Scan Version 6.4.0.1610
Parameter List :
Instrument  Cary 7000
Instrument Version  3.07
Method Log     :
Method Name    :
Date/Time stamp: 2024-09-12 8:41:50 AM
Method Modifications:
ConcentrationReportSelected Changed: 2024-09-12 8:41:51 AM, Old:Choice 0, New:Choice 1
ConcentrationReportSelected Changed: 2024-09-12 8:41:51 AM, Old:ON, New:Choice 0
MCAReportSelected Changed: 2024-09-12 8:41:51 AM, Old:Choice 0, New:Choice 1
MCAReportSelected Changed: 2024-09-12 8:41:51 AM, Old:ON, New:Choice 0
X Start nm Changed: 2024-09-12 8:45:07 AM, Old:800.000, New:1200.000
X Stop nm Changed: 2024-09-12 8:45:07 AM, Old:200.000, New:250.000
UVVIS Scan Rate nm Changed: 2024-09-12 8:45:07 AM, Old:  602.007, New:  600.000
NIR Scan Rate nm Changed: 2024-09-12 8:45:07 AM, Old:    0.004, New:   12.000
Common Interval nm Changed: 2024-09-12 8:45:07 AM, Old:    1.000, New:    0.667
Source changeover Changed: 2024-09-12 8:45:07 AM, Old:   350.00, New:   300.00
Detector changeover Changed: 2024-09-12 8:45:07 AM, Old:   800.00, New:   900.00
Grating changeover Changed: 2024-09-12 8:45:07 AM, Old:   800.00, New:   900.00
Baseline Correction Changed: 2024-09-12 8:45:07 AM, Old:0, New:2
Sipper Type Changed: 2024-09-12 8:45:07 AM, Old:Internal RSA, New:External sipper
End Method Modifications
<Current Wavelength> , 250.000
<SBW (nm)> , 2.00
<Energy> , 52.48
<Slit Height> , Full

non-imine polymer t=48hrs FeCl3 100uM,
non-imine polymer t=48hrs FeCl3 100uM
Collection Time: 2024-09-12 9:10:50 AM
Operator Name  :
Scan Version 6.4.0.1610
Parameter List :
Instrument  Cary 7000
Instrument Version  3.07
Method Log     :
Method Name    :
Date/Time stamp: 2024-09-12 8:41:50 AM
Method Modifications:
ConcentrationReportSelected Changed: 2024-09-12 8:41:51 AM, Old:Choice 0, New:Choice 1
ConcentrationReportSelected Changed: 2024-09-12 8:41:51 AM, Old:ON, New:Choice 0
MCAReportSelected Changed: 2024-09-12 8:41:51 AM, Old:Choice 0, New:Choice 1
MCAReportSelected Changed: 2024-09-12 8:41:51 AM, Old:ON, New:Choice 0
X Start nm Changed: 2024-09-12 8:45:07 AM, Old:800.000, New:1200.000
X Stop nm Changed: 2024-09-12 8:45:07 AM, Old:200.000, New:250.000
UVVIS Scan Rate nm Changed: 2024-09-12 8:45:07 AM, Old:  602.007, New:  600.000
NIR Scan Rate nm Changed: 2024-09-12 8:45:07 AM, Old:    0.004, New:   12.000
Common Interval nm Changed: 2024-09-12 8:45:07 AM, Old:    1.000, New:    0.667
Source changeover Changed: 2024-09-12 8:45:07 AM, Old:   350.00, New:   300.00
Detector changeover Changed: 2024-09-12 8:45:07 AM, Old:   800.00, New:   900.00
Grating changeover Changed: 2024-09-12 8:45:07 AM, Old:   800.00, New:   900.00
Baseline Correction Changed: 2024-09-12 8:45:07 AM, Old:0, New:2
Sipper Type Changed: 2024-09-12 8:45:07 AM, Old:Internal RSA, New:External sipper
End Method Modifications
<Current Wavelength> , 250.000
<SBW (nm)> , 2.00
<Energy> , 52.48
<Slit Height> , Full