File: UV-Vis data/2024_09/2024_09_11_imine polymer t=5hrs FeCl3 solution doping.csv
t=5hrs FeCl3 0uM,,t=5hrs FeCl3 5uM,,t=5hrs FeCl3 20uM,,t=5hrs FeCl3 50uM,,t=5hrs FeCl3 100uM,,
Wavelength (nm),Abs,Wavelength (nm),Abs,Wavelength (nm),Abs,Wavelength (nm),Abs,Wavelength (nm),Abs,
1400,0.00754828,1400,0.00660087,1400,0.00973622,1400,0.00559996,1400,0.00725482,
1398,0.0067138,1398,0.00575957,1398,0.00825329,1398,0.00488252,1398,0.00656681,
1396,0.00560381,1396,0.00454301,1396,0.00654392,1396,0.00391838,1396,0.0056722,
1394,0.00438373,1394,0.00304539,1394,0.00432352,1394,0.00269692,1394,0.00441352,
1392,0.00378289,1392,0.00263913,1392,0.00360011,1392,0.0023066,1392,0.00413429,
1390,0.00322595,1390,0.00169331,1390,0.00239491,1390,0.00152069,1390,0.00335673,
1388,0.0029089,1388,0.00178394,1388,0.00239764,1388,0.00150913,1388,0.00345345,
1386,0.00262913,1386,0.00132905,1386,0.00183221,1386,0.00120428,1386,0.0030406,
1384,0.00240829,1384,0.00129236,1384,0.0017034,1384,0.001179,1384,0.00305029,
1382,0.00231316,1382,0.00136075,1382,0.00183718,1382,0.00122829,1382,0.00301469,
1380,0.00219973,1380,0.00141222,1380,0.00188953,1380,0.00124407,1380,0.00307683,
1378,0.00218124,1378,0.00119439,1378,0.00162783,1378,0.00111266,1378,0.00290762,
1376,0.00209882,1376,0.00125962,1376,0.00181916,1376,0.00124194,1376,0.00297322,
1374,0.00203921,1374,0.00128559,1374,0.00192484,1374,0.00124335,1374,0.00304547,
1372,0.001955,1372,0.00148723,1372,0.00214549,1372,0.00144596,1372,0.00312543,
1370,0.00190168,1370,0.00113049,1370,0.00186777,1370,0.00123107,1370,0.00294697,
1368,0.00189767,1368,0.00131742,1368,0.00210117,1368,0.00138387,1368,0.003065,
1366,0.00178872,1366,0.00125721,1366,0.00205149,1366,0.00133113,1366,0.00302884,
1364,0.00182696,1364,0.00104957,1364,0.00193587,1364,0.00132131,1364,0.00297968,
1362,0.00168178,1362,0.00120877,1362,0.00209001,1362,0.0013567,1362,0.00300835,
1360,0.00147264,1360,0.000974016,1360,0.00187893,1360,0.00124841,1360,0.00283132,
1358,0.00131788,1358,0.000873805,1358,0.00184097,1358,0.00117409,1358,0.00278909,
1356,0.00121178,1356,0.000757722,1356,0.00175041,1356,0.00106392,1356,0.00265325,
1354,0.00106574,1354,0.000671353,1354,0.0017718,1354,0.00108354,1354,0.00268419,
1352,0.00100985,1352,0.000498384,1352,0.00165493,1352,0.0010457,1352,0.00250354,
1350,0.000780334,1350,0.000548067,1350,0.0017985,1350,0.00111704,1350,0.0025997,
1348,0.000678094,1348,0.000407947,1348,0.00180458,1348,0.00102466,1348,0.00248868,
1346,0.000649991,1346,0.00041712,1346,0.00185467,1346,0.00109989,1346,0.00246418,
1344,0.0006011,1344,0.00032512,1344,0.00189076,1344,0.00110747,1344,0.00245928,
1342,0.000625752,1342,0.000330534,1342,0.00195186,1342,0.00117308,1342,0.00247194,
1340,0.00061235,1340,0.000334757,1340,0.00201575,1340,0.00118048,1340,0.00249492,
1338,0.000531246,1338,0.000213664,1338,0.00206761,1338,0.00118956,1338,0.00245428,
1336,0.000478533,1336,0.00023573,1336,0.00211675,1336,0.00118144,1336,0.00243796,
1334,0.000452204,1334,0.000205557,1334,0.00221446,1334,0.00119576,1334,0.00249016,
1332,0.000353358,1332,0.000184166,1332,0.00222643,1332,0.00121705,1332,0.00244075,
1330,0.00030652,1330,0.000192608,1330,0.00227371,1330,0.00116023,1330,0.00243276,
1328,0.000230964,1328,0.000198306,1328,0.00233247,1328,0.0010921,1328,0.00243731,
1326,0.000236714,1326,0.000181991,1326,0.00231803,1326,0.00105629,1326,0.00239738,
1324,0.000213249,1324,0.000234202,1324,0.00233223,1324,0.00108569,1324,0.00237625,
1322,0.000199963,1322,0.000211074,1322,0.00235126,1322,0.00102002,1322,0.002413,
1320,0.000261035,1320,0.000275436,1320,0.00235628,1320,0.00103486,1320,0.00243708,
1318,0.000211877,1318,0.000279115,1318,0.00234811,1318,0.000980891,1318,0.00242867,
1316,0.000211799,1316,0.000261708,1316,0.00225427,1316,0.000910457,1316,0.00242932,
1314,0.000257486,1314,0.000261527,1314,0.00221454,1314,0.000863171,1314,0.00241487,
1312,0.000287144,1312,0.000266811,1312,0.00214216,1312,0.000854689,1312,0.00241701,
1310,0.000292221,1310,0.000238061,1310,0.00202155,1310,0.00084447,1310,0.00243367,
1308,0.000295097,1308,0.000224567,1308,0.00194247,1308,0.00091191,1308,0.00247509,
1306,0.000249664,1306,0.000266371,1306,0.00171114,1306,0.000870485,1306,0.00243606,
1304,0.000305432,1304,0.000278519,1304,0.00154997,1304,0.000874272,1304,0.00250513,
1302,0.000284813,1302,0.000324006,1302,0.00140142,1302,0.000821258,1302,0.00253387,
1300,0.000303127,1300,0.000384085,1300,0.00127507,1300,0.000834199,1300,0.00249008,
1298,0.000312608,1298,0.000388334,1298,0.00109509,1298,0.000813062,1298,0.00253385,
1296,0.000257383,1296,0.00041484,1296,0.000856557,1296,0.000706199,1296,0.00247964,
1294,0.000258367,1294,0.00042225,1294,0.000739544,1294,0.000672209,1294,0.00249505,
1292,0.000321416,1292,0.000411445,1292,0.000587335,1292,0.000677368,1292,0.002549,
1290,0.000354239,1290,0.000507351,1290,0.000517017,1290,0.000675709,1290,0.00259147,
1288,0.000374421,1288,0.000536741,1288,0.00045775,1288,0.000614631,1288,0.00260553,
1286,0.000259921,1286,0.000535963,1286,0.000324343,1286,0.000513078,1286,0.00256567,
1284,0.000331467,1284,0.000542702,1284,0.000346078,1284,0.000548611,1284,0.00260577,
1282,0.000294812,1282,0.000493615,1282,0.000324913,1282,0.000475812,1282,0.00257965,
1280,0.000330845,1280,0.000507739,1280,0.00030108,1280,0.00050704,1280,0.00263936,
1278,0.000338695,1278,0.000507869,1278,0.000324757,1278,0.000497321,1278,0.00265773,
1276,0.000334705,1276,0.000535704,1276,0.000315224,1276,0.000487033,1276,0.00266588,
1274,0.000346052,1274,0.000507636,1274,0.000230912,1274,0.000490039,1274,0.00260889,
1272,0.00030994,1272,0.000508802,1272,0.000265878,1272,0.000484519,1272,0.00264541,
1270,0.000310173,1270,0.00053433,1270,0.000268676,1270,0.000522538,1270,0.00268622,
1268,0.000362788,1268,0.000516292,1268,0.000188258,1268,0.000466249,1268,0.0026939,
1266,0.000327918,1266,0.000487085,1266,0.000241169,1266,0.000512612,1266,0.00270357,
1264,0.000337969,1264,0.000534486,1264,0.00026031,1264,0.000548611,1264,0.00278255,
1262,0.000335197,1262,0.000485841,1262,0.000238009,1262,0.000517328,1262,0.00275871,
1260,0.000350068,1260,0.000483482,1260,0.000229669,1260,0.000542728,1260,0.00277747,
1258,0.000371597,1258,0.000463528,1258,0.000257176,1258,0.000523963,1258,0.0027812,
1256,0.000350197,1256,0.000469385,1256,0.000180333,1256,0.000460056,1256,0.0027758,
1254,0.000407585,1254,0.000486748,1254,0.000231456,1254,0.000548948,1254,0.00280006,
1252,0.000389992,1252,0.000484597,1252,0.000208121,1252,0.000549803,1252,0.00282301,
1250,0.000366856,1250,0.000449043,1250,0.000240055,1250,0.000528343,1250,0.00286869,
1248,0.000408828,1248,0.000507843,1248,0.000277224,1248,0.000584977,1248,0.0028727,
1246,0.000416342,1246,0.000518002,1246,0.000266992,1246,0.000577123,1246,0.0028678,
1244,0.000424038,1244,0.00049758,1244,0.000299008,1244,0.00057593,1244,0.00288049,
1242,0.000434921,1242,0.000455547,1242,0.000299993,1242,0.00057142,1242,0.0028899,
1240,0.000456221,1240,0.000405356,1240,0.000299578,1240,0.000603796,1240,0.00292185,
1238,0.000492812,1238,0.000397609,1238,0.000321312,1238,0.000617975,1238,0.0029496,
1236,0.000454433,1236,0.0002916,1236,0.000280902,1236,0.000594516,1236,0.00291468,
1234,0.000406496,1234,0.000244173,1234,0.000338539,1234,0.000593868,1234,0.00293577,
1232,0.0004769,1232,0.000243992,1232,0.00035828,1232,0.000553614,1232,0.00293519,
1230,0.00045052,1230,0.000235626,1230,0.000339886,1230,0.00050266,1230,0.00291377,
1228,0.000479621,1228,0.000146203,1228,0.000428883,1228,0.000483949,1228,0.00296681,
1226,0.000527047,1226,0.000143639,1226,0.000455495,1226,0.000462777,1226,0.00304495,
1224,0.000503696,1224,0.000140273,1224,0.000493537,1224,0.000443316,1224,0.00302965,
1222,0.000524171,1222,0.000114794,1222,0.000555635,1222,0.000466353,1222,0.00307694,
1220,0.00053744,1220,0.000154049,1220,0.000596304,1220,0.000490531,1220,0.00313758,
1218,0.000531246,1218,0.000102495,1218,0.000627541,1218,0.000480139,1218,0.00307749,
1216,0.000579119,1216,9.70573e-05,1216,0.000610198,1216,0.000419944,1216,0.003062,
1214,0.000629796,1214,8.84355e-05,1214,0.000643199,1214,0.000442202,1214,0.00309597,
1212,0.00067475,1212,0.000114224,1212,0.000639984,1212,0.000414554,1212,0.00309993,
1210,0.000693495,1210,0.000162646,1210,0.000723701,1210,0.000502686,1210,0.00311758,
1208,0.000740011,1208,0.000176216,1208,0.000750798,1208,0.00050989,1208,0.00316874,
1206,0.000707237,1206,0.000143898,1206,0.000717452,1206,0.000471795,1206,0.00310668,
1204,0.000666946,1204,0.000167126,1204,0.00080287,1204,0.000516084,1204,0.00318911,
1202,0.000638895,1202,0.000178287,1202,0.000843095,1202,0.000565329,1202,0.00316079,
1200,0.000656602,1200,0.000238838,1200,0.000839879,1200,0.000578496,1200,0.00322288,
1198,0.000754454,1198,0.000156638,1198,0.000738429,1198,0.000511886,1198,0.00299008,
1196,0.000787595,1196,0.000201983,1196,0.0007432,1196,0.000528991,1196,0.00298323,
1194,0.000735836,1194,0.000170363,1194,0.000732025,1194,0.000495144,1194,0.00296699,
1192,0.000754791,1192,0.000116994,1192,0.000654087,1192,0.000533319,1192,0.00294455,
1190,0.000789255,1190,0.000126161,1190,0.000726761,1190,0.000540136,1190,0.00297973,
1188,0.000753236,1188,0.000153401,1188,0.000717141,1188,0.000569139,1188,0.00293634,
1186,0.00071963,1186,0.000125203,1186,0.000703555,1186,0.000565122,1186,0.00288649,
1184,0.00064841,1184,0.000134524,1184,0.000738248,1184,0.000562711,1184,0.00288805,
1182,0.000648928,1182,0.000201103,1182,0.00082603,1182,0.000640243,1182,0.00292227,
1180,0.000674283,1180,0.00025961,1180,0.000843121,1180,0.000671898,1180,0.00297053,
1178,0.000617457,1178,0.000215787,1178,0.000858761,1178,0.000661735,1178,0.00290491,
1176,0.000640062,1176,0.00024552,1176,0.000847946,1176,0.000698032,1176,0.00302282,
1174,0.000654009,1174,0.00026277,1174,0.000829894,1174,0.000734358,1174,0.00301964,
1172,0.000592027,1172,0.000297221,1172,0.000869577,1172,0.000706977,1172,0.0030553,
1170,0.000585365,1170,0.000293258,1170,0.00085762,1170,0.000746131,1170,0.00303617,
1168,0.000562089,1168,0.000359498,1168,0.000922623,1168,0.000764101,1168,0.00308747,
1166,0.000557916,1166,0.000351907,1166,0.00090405,1166,0.00076519,1166,0.0030816,
1164,0.000608047,1164,0.000399863,1164,0.000992021,1164,0.000840424,1164,0.00316428,
1162,0.000625778,1162,0.000452023,1162,0.000917617,1162,0.000840969,1162,0.00318678,
1160,0.000643821,1160,0.000407973,1160,0.000975754,1160,0.00086771,1160,0.00325795,
1158,0.000637703,1158,0.000410176,1158,0.000826704,1158,0.00082769,1158,0.00326027,
1156,0.000905373,1156,0.000577615,1156,0.000969138,1156,0.000915541,1156,0.00314433,
1154,0.000675087,1154,0.000324783,1154,0.000801392,1154,0.00061686,1154,0.0032488,
1152,0.000989504,1152,0.000419814,1152,0.00104926,1152,0.000398931,1152,0.00343714,
1150,0.00106514,1150,0.000611235,1150,0.00106384,1150,0.000552551,1150,0.00351553,
1148,0.00137496,1148,0.00108748,1148,0.00169235,1148,0.00125983,1148,0.00386915,
1146,0.00114422,1146,0.000914841,1146,0.00140293,1146,0.0011709,1146,0.00370417,
1144,0.00099254,1144,0.000822399,1144,0.00136452,1144,0.00123948,1144,0.0038325,
1142,0.000868799,1142,0.00073664,1142,0.00124488,1142,0.00126456,1142,0.00375518,
1140,0.000914452,1140,0.00079732,1140,0.00136408,1140,0.00143575,1140,0.00393243,
1138,0.000914219,1138,0.000844237,1138,0.00136429,1138,0.00156275,1138,0.00403236,
1136,0.000916346,1136,0.000861588,1136,0.00145786,1136,0.00171158,1136,0.0041003,
1134,0.00102292,1134,0.000990283,1134,0.00150843,1134,0.00171629,1134,0.00424854,
1132,0.00101228,1132,0.000875958,1132,0.00147303,1132,0.00169383,1132,0.00419935,
1130,0.00100842,1130,0.000846545,1130,0.00141809,1130,0.00151311,1130,0.00419733,
1128,0.0010279,1128,0.000775926,1128,0.00136597,1128,0.00142892,1128,0.00407699,
1126,0.00107129,1126,0.000688698,1126,0.00131067,1126,0.00126705,1126,0.00404177,
1124,0.00109584,1124,0.000660517,1124,0.00131586,1124,0.00117954,1124,0.00397036,
1122,0.00117085,1122,0.000611935,1122,0.00129727,1122,0.00107121,1122,0.00395803,
1120,0.00119743,1120,0.000563878,1120,0.00124293,1120,0.00105775,1120,0.00394811,
1118,0.0011763,1118,0.00054887,1118,0.00118712,1118,0.00103411,1118,0.00388244,
1116,0.00116776,1116,0.000488095,1116,0.0011641,1116,0.00094003,1116,0.00386544,
1114,0.00112984,1114,0.00035898,1114,0.00108211,1114,0.000824914,1114,0.00381561,
1112,0.00120148,1112,0.00040318,1112,0.00114147,1112,0.000834874,1112,0.00382049,
1110,0.00121126,1110,0.000347788,1110,0.00110661,1110,0.000834018,1110,0.00377816,
1108,0.00122476,1108,0.000400848,1108,0.00115078,1108,0.000852848,1108,0.00380161,
1106,0.00123304,1106,0.000380095,1106,0.00115507,1106,0.00079605,1106,0.00381417,
1104,0.00127453,1104,0.000374602,1104,0.00115937,1104,0.000776574,1104,0.0037844,
1102,0.00130459,1102,0.000379447,1102,0.00116685,1102,0.000738766,1102,0.0037509,
1100,0.00130537,1100,0.000353876,1100,0.00113983,1100,0.000805645,1100,0.00383096,
1098,0.00138885,1098,0.000378359,1098,0.00120103,1098,0.000851136,1098,0.00384047,
1096,0.00143357,1096,0.000424323,1096,0.00121277,1096,0.00085775,1096,0.00386358,
1094,0.00142537,1094,0.000367477,1094,0.0012575,1094,0.000866127,1094,0.0038779,
1092,0.00149942,1092,0.00048413,1092,0.00131056,1092,0.000911158,1092,0.00391378,
1090,0.00146212,1090,0.000363721,1090,0.00123958,1090,0.000808809,1090,0.00382812,
1088,0.00160102,1088,0.000398542,1088,0.00129143,1088,0.000864519,1088,0.0039067,
1086,0.00158829,1086,0.000354005,1086,0.00122328,1086,0.000854923,1086,0.00382057,
1084,0.0017028,1084,0.000344575,1084,0.00122567,1084,0.000836715,1084,0.00383015,
1082,0.00180908,1082,0.000444456,1082,0.0013082,1082,0.000877877,1082,0.00397627,
1080,0.00189674,1080,0.000429946,1080,0.00130997,1080,0.000930587,1080,0.00394487,
1078,0.00203341,1078,0.000497347,1078,0.00133227,1078,0.000909342,1078,0.00396961,
1076,0.00205726,1076,0.000445804,1076,0.00132534,1076,0.000965843,1076,0.00391895,
1074,0.00208951,1074,0.000426266,1074,0.00131194,1074,0.000958216,1074,0.00393653,
1072,0.00220824,1072,0.000440725,1072,0.00138709,1072,0.00104799,1072,0.00395033,
1070,0.00220374,1070,0.000423649,1070,0.00133624,1070,0.000946775,1070,0.00385901,
1068,0.00224914,1068,0.000437875,1068,0.00134003,1068,0.000997781,1068,0.00389746,
1066,0.00229213,1066,0.000470499,1066,0.00140823,1066,0.00108292,1066,0.00392917,
1064,0.0022844,1064,0.000420747,1064,0.00134912,1064,0.0010668,1064,0.00387774,
1062,0.00236347,1062,0.000450339,1062,0.00142796,1062,0.00110233,1062,0.00396864,
1060,0.00236646,1060,0.00041769,1060,0.00143485,1060,0.00115569,1060,0.00392901,
1058,0.00238249,1058,0.00044881,1058,0.00141313,1058,0.00110674,1058,0.00393502,
1056,0.00246045,1056,0.000499472,1056,0.0015076,1056,0.00120212,1056,0.00397049,
1054,0.00242146,1054,0.000497451,1054,0.00147201,1054,0.00115862,1054,0.00396289,
1052,0.00244051,1052,0.000453474,1052,0.00148682,1052,0.001198,1052,0.00399813,
1050,0.00243283,1050,0.000509528,1050,0.00156592,1050,0.00123164,1050,0.004003176,
1048,0.00240548,1048,0.000552058,1048,0.00165834,1048,0.00132155,1048,0.00410079,
1046,0.00238629,1046,0.00052614,1046,0.00166091,1046,0.00133126,1046,0.00410492,
1044,0.0023529,1044,0.000546901,1044,0.00168796,1044,0.00136265,1044,0.00412225,
1042,0.00236125,1042,0.000551488,1042,0.00172853,1042,0.00141864,1042,0.00419025,
1040,0.00233424,1040,0.00056888,1040,0.00181316,1040,0.00142269,1040,0.00423288,
1038,0.00241774,1038,0.000594956,1038,0.00188239,1038,0.00152576,1038,0.00428697,
1036,0.00237658,1036,0.000635188,1036,0.00186751,1036,0.00154539,1036,0.00436438,
1034,0.00232867,1034,0.000593945,1034,0.00187628,1034,0.00148557,1034,0.0043471,
1032,0.00221139,1032,0.000593868,1032,0.00187209,1032,0.00155558,1032,0.00435439,
1030,0.002262,1030,0.000628992,1030,0.00186465,1030,0.00158049,1030,0.00441067,
1028,0.00216607,1028,0.000586558,1028,0.00178586,1028,0.00155831,1028,0.00437965,
1026,0.0021193,1026,0.000574479,1026,0.00180146,1026,0.00158909,1026,0.00436362,
1024,0.00211633,1024,0.00061712,1024,0.00184253,1024,0.00164831,1024,0.0044528,
1022,0.00216602,1022,0.000643121,1022,0.00188309,1022,0.00165587,1022,0.00448313,
1020,0.00207378,1020,0.000575256,1020,0.00185153,1020,0.00166408,1020,0.00452713,
1018,0.00209958,1018,0.000649084,1018,0.0019186,1018,0.00179083,1018,0.00459525,
1016,0.00201125,1016,0.00061248,1016,0.00186429,1016,0.00174243,1016,0.00457537,
1014,0.00203965,1014,0.000660776,1014,0.00191408,1014,0.00176546,1014,0.00464061,
1012,0.00196465,1012,0.000598715,1012,0.00188751,1012,0.00179941,1012,0.00462416,
1010,0.001949,1010,0.000665002,1010,0.00191161,1010,0.00185584,1010,0.00467379,
1008,0.00189731,1008,0.000631481,1008,0.00191473,1008,0.00189154,1008,0.00475544,
1006,0.0018371,1006,0.000643225,1006,0.00191894,1006,0.00192378,1006,0.00473874,
1004,0.00182044,1004,0.000686495,1004,0.00199926,1004,0.00205372,1004,0.00484008,
1002,0.00184609,1002,0.00072938,1002,0.00201632,1002,0.00209594,1002,0.00487914,
1000,0.00177908,1000,0.000684291,1000,0.00203128,1000,0.00210975,1000,0.004905,
998,0.00178865,998,0.000752224,998,0.00210728,998,0.00221376,998,0.00499656,
996,0.0017718,996,0.000741956,996,0.0020467,996,0.00222063,996,0.00496022,
994,0.00170711,994,0.000688491,994,0.00209256,994,0.0022825,994,0.00503249,
992,0.00167518,992,0.000722664,992,0.00216758,992,0.00237148,992,0.0051257,
990,0.00166707,990,0.000741256,990,0.0021593,990,0.00240589,990,0.00510252,
988,0.00163555,988,0.000771543,988,0.00227019,988,0.00248743,988,0.00521016,
986,0.00160156,986,0.000767238,986,0.00227137,986,0.00251062,986,0.00521207,
984,0.00161531,984,0.000793171,984,0.00235191,984,0.00260754,984,0.00534657,
982,0.00156506,982,0.000822269,982,0.0023758,982,0.00263632,982,0.00533504,
980,0.00151027,980,0.000787388,980,0.00240316,980,0.00264822,980,0.00536767,
978,0.00147793,978,0.000772295,978,0.00240037,978,0.00273329,978,0.0054019,
976,0.00148116,976,0.00079426,976,0.002459,976,0.00276773,976,0.00545109,
974,0.00142181,974,0.000806034,974,0.00247365,974,0.00283372,974,0.00551474,
972,0.00139524,972,0.000819805,972,0.00249367,972,0.00289469,972,0.00552035,
970,0.00131513,970,0.000762,970,0.00247386,970,0.00286806,970,0.00548011,
968,0.00125609,968,0.000711489,968,0.00249198,968,0.00289884,968,0.00548675,
966,0.00116329,966,0.000641721,966,0.00244085,966,0.00284586,966,0.00546727,
964,0.0012075,964,0.000709233,964,0.0025872,964,0.00294708,964,0.0056449,
962,0.00125493,962,0.000791797,962,0.00273834,962,0.00306281,962,0.0057266,
960,0.00135125,960,0.000884621,960,0.00295813,960,0.00320444,960,0.00594347,
958,0.00138724,958,0.00102064,958,0.00316066,958,0.00332694,958,0.00611098,
956,0.0014015,956,0.00107804,956,0.00321899,956,0.00341421,956,0.00624258,
954,0.00134546,954,0.0010818,954,0.00331338,954,0.00343745,954,0.00626616,
952,0.00125505,952,0.000997444,952,0.00328537,952,0.00339213,952,0.00631646,
950,0.00120783,950,0.001001,950,0.00327947,950,0.00342362,950,0.00642771,
948,0.0011832,948,0.00100852,948,0.00337619,948,0.00345238,948,0.00645984,
946,0.001179,946,0.00101075,946,0.00342089,946,0.00344507,946,0.00656177,
944,0.00111198,944,0.000968619,944,0.00341976,944,0.00346829,944,0.00662571,
942,0.00113368,942,0.00102635,942,0.00355115,942,0.00356295,942,0.00670809,
940,0.00112877,940,0.00104734,940,0.00360131,940,0.00358526,940,0.00678129,
938,0.00112039,938,0.00101646,938,0.00368547,938,0.0036506,938,0.00692498,
936,0.0011233,936,0.0010797,936,0.00373479,936,0.00369921,936,0.00700755,
934,0.00111759,934,0.00105956,934,0.00377759,934,0.0037332,934,0.00708871,
932,0.00106945,932,0.00108927,932,0.00383953,932,0.00375208,932,0.00721242,
930,0.00100878,930,0.00110708,930,0.00385982,930,0.00380939,930,0.00728925,
928,0.00101854,928,0.00108056,928,0.00395848,928,0.00385494,928,0.00744352,
926,0.00102087,926,0.0011262,926,0.00397713,926,0.00390822,926,0.00753287,
924,0.00101024,924,0.0011111,924,0.00403965,924,0.00398653,924,0.00757747,
922,0.00101833,922,0.00116516,922,0.00409416,922,0.00403474,922,0.00774841,
920,0.00104991,920,0.00119179,920,0.00420078,920,0.00408801,920,0.00785844,
918,0.00108652,918,0.00122408,918,0.00424893,918,0.0041143,918,0.00800618,
916,0.00102705,916,0.00116135,916,0.00426022,916,0.00415557,916,0.00810412,
914,0.000994642,914,0.00120745,914,0.00438352,914,0.00424156,914,0.00830547,
912,0.000953598,912,0.00115987,912,0.00437503,912,0.00420936,912,0.00828078,
910,0.000945037,910,0.00123782,910,0.00448844,910,0.00432637,910,0.00849879,
908,0.000945348,908,0.00119828,908,0.00456901,908,0.00442162,908,0.00863687,
906,0.000954506,906,0.00127406,906,0.0046303,906,0.00446731,906,0.00875968,
904,0.000963897,904,0.00126336,904,0.00474429,904,0.00456393,904,0.00897947,
902,0.000946827,902,0.00127585,902,0.0048182,902,0.00464914,902,0.00906576,
900,0.000955907,900,0.00130327,900,0.00488943,900,0.00474125,900,0.00926999,
898,0.00543702,898,0.00581605,898,0.00660198,898,0.00765869,898,0.0120808,
896,0.00425463,896,0.00157249,896,0.00687524,896,0.00737908,896,0.0108832,
894,0.00120137,894,0.00127279,894,0.00641029,894,0.00707803,894,0.0117976,
892,0.00288862,892,0.00212996,892,0.00532325,892,0.00533003,892,0.013215,
890,0.00362157,890,0.00283617,890,0.00621225,890,0.0083041,890,0.0129884,
888,0.00267518,888,0.000772555,888,0.00519117,888,0.00608006,888,0.0111933,
886,0.00421696,886,0.00195862,886,0.00908432,886,0.00944104,886,0.0130074,
884,0.00334698,884,0.00348805,884,0.00762473,884,0.00762035,884,0.0139818,
882,0.00279167,882,0.00359769,882,0.0075334,882,0.0077083,882,0.0142652,
880,0.0046711,880,0.00430417,880,0.00873274,880,0.00985132,880,0.016413,
878,0.00448729,878,0.00402089,878,0.0084431,878,0.00953455,878,0.0150501,
876,0.00121606,876,0.00163615,876,0.00609843,876,0.00790043,876,0.0132163,
874,0.00282833,874,0.00359891,874,0.00755231,874,0.00887916,874,0.0148879,
872,0.00243653,872,0.00303356,872,0.00728933,872,0.00869922,872,0.0153155,
870,0.00293751,870,0.00316697,870,0.00748454,870,0.00859719,870,0.0153338,
868,0.00338621,868,0.00391875,868,0.00807677,868,0.00884754,868,0.0157015,
866,0.00319015,866,0.00347524,866,0.00843317,866,0.00980191,866,0.0160016,
864,0.00246295,864,0.00301844,864,0.00765165,864,0.00916317,864,0.0159939,
862,0.00294116,862,0.00346569,862,0.00854473,862,0.00919757,862,0.0164276,
860,0.00315643,860,0.00382613,860,0.00815167,860,0.00987994,860,0.0168253,
858,0.00310225,858,0.00356417,858,0.00932339,858,0.0105704,858,0.0173967,
856,0.00248251,856,0.00345872,856,0.0087712,856,0.0102255,856,0.0172225,
854,0.00325112,854,0.00390963,854,0.00923927,854,0.0106574,854,0.017976,
852,0.00258181,852,0.00374411,852,0.00916597,852,0.0110373,852,0.0186166,
850,0.00306518,850,0.00375197,850,0.00909135,850,0.0110509,850,0.018843,
848,0.00350759,848,0.00431369,848,0.00997566,848,0.0112989,848,0.0193642,
846,0.00312488,846,0.00381287,846,0.00976489,846,0.0114402,846,0.0196915,
844,0.00344771,844,0.00406092,844,0.00979185,844,0.0114521,844,0.020169,
842,0.00305986,842,0.0040286,842,0.00997348,842,0.0117912,842,0.0208358,
840,0.00336563,840,0.00415562,840,0.0106031,840,0.0123171,840,0.0213444,
838,0.00333746,838,0.0040662,838,0.0106103,838,0.012468,838,0.0215034,
836,0.00335444,836,0.00397402,836,0.0108515,836,0.0126635,836,0.0218929,
834,0.00326249,834,0.00409361,834,0.0110148,834,0.0129295,834,0.0225045,
832,0.00346295,832,0.0044473,832,0.0113696,832,0.0133613,832,0.0234349,
830,0.00328164,830,0.00448358,830,0.0114828,830,0.0135489,830,0.0239705,
828,0.00363298,828,0.00438841,828,0.0118208,828,0.0138604,828,0.024589,
826,0.00358169,826,0.0044188,826,0.0118439,826,0.0140611,826,0.0252062,
824,0.00356334,824,0.00478894,824,0.0122652,824,0.0145016,824,0.0258705,
822,0.00367433,822,0.00471684,822,0.0124515,822,0.014578,822,0.0266212,
820,0.00357464,820,0.00482351,820,0.0129061,820,0.0151529,820,0.0274281,
818,0.00362076,818,0.00481422,818,0.0128928,818,0.015297,818,0.0280769,
816,0.00353648,816,0.00495854,816,0.01342,816,0.0155681,816,0.0287565,
814,0.0035453,814,0.00477645,814,0.0134636,814,0.0158877,814,0.0295069,
812,0.0036287,812,0.00493234,812,0.013884,812,0.0163204,812,0.0306153,
810,0.00366955,810,0.004901,810,0.0142424,810,0.01652,810,0.0312972,
808,0.00359252,808,0.00500505,808,0.0144442,808,0.0168802,808,0.0323399,
806,0.00345387,806,0.00485961,806,0.0146452,806,0.0171096,806,0.0332543,
804,0.0036199,804,0.00502498,804,0.0151151,804,0.0177951,804,0.0345186,
802,0.00357944,802,0.00500761,802,0.0152494,802,0.0179406,802,0.0355515,
800,0.0035767,800,0.00523193,800,0.0157444,800,0.0184517,800,0.036646,
798,0.00379895,798,0.00533931,798,0.0161864,798,0.0190645,798,0.0379874,
796,0.00371148,796,0.00537663,796,0.0165321,796,0.0193547,796,0.0394974,
794,0.00370404,794,0.00538486,794,0.0168568,794,0.019951,794,0.0406328,
792,0.00366965,792,0.00539157,792,0.0171654,792,0.020369,792,0.0421737,
790,0.00379529,790,0.0054502,790,0.0177667,790,0.0208717,790,0.0438007,
788,0.00383334,788,0.00560219,788,0.0181942,788,0.0213463,788,0.0454722,
786,0.00378921,786,0.0056014,786,0.0184638,786,0.0218847,786,0.0470747,
784,0.00381138,784,0.00573193,784,0.019094,784,0.0224142,784,0.0491509,
782,0.00380905,782,0.00567139,782,0.0193001,782,0.022954,782,0.050973,
780,0.00389633,780,0.0058716,780,0.0198723,780,0.023499,780,0.0532668,
778,0.00382746,778,0.0058594,778,0.0204713,778,0.0241087,778,0.0556131,
776,0.0038978,776,0.00587572,776,0.0207594,776,0.0247007,776,0.0579839,
774,0.00387244,774,0.00610221,774,0.021327,774,0.025366,774,0.0607213,
772,0.00385162,772,0.00614446,772,0.0217547,772,0.0259716,772,0.0632637,
770,0.0039591,770,0.00621062,770,0.0223859,770,0.026606,770,0.0660457,
768,0.00395435,768,0.00616276,768,0.0227958,768,0.0272194,768,0.068828,
766,0.00396634,766,0.00626306,766,0.0231105,766,0.0279768,766,0.071941,
764,0.00396441,764,0.00629366,764,0.0238068,764,0.0286383,764,0.0751753,
762,0.00383073,762,0.00629348,762,0.0241648,762,0.0293547,762,0.0780942,
760,0.00392052,760,0.00632082,760,0.0247012,760,0.0301744,760,0.0813543,
758,0.00386301,758,0.00631948,758,0.0252004,758,0.0309386,758,0.084557,
756,0.00382741,756,0.00657577,756,0.0257668,756,0.0316323,756,0.0877301,
754,0.00388066,754,0.00653136,754,0.0263867,754,0.0325396,754,0.0908594,
752,0.0039287,752,0.00660229,752,0.026916,752,0.0333314,752,0.0938555,
750,0.00384313,750,0.0064106,750,0.02741,750,0.0340885,750,0.0967471,
748,0.0040449,748,0.00655916,748,0.0281725,748,0.0351764,748,0.099882,
746,0.00379934,746,0.00640456,746,0.0286295,746,0.035863,746,0.102823,
744,0.00383162,744,0.00646924,744,0.0291977,744,0.0369273,744,0.105763,
742,0.00392559,742,0.00666608,742,0.0299162,742,0.0380355,742,0.10885,
740,0.00377312,740,0.00653543,740,0.0305098,740,0.0390694,740,0.1118,
738,0.00378539,738,0.00659993,738,0.0312861,738,0.0401819,738,0.114694,
736,0.00387319,736,0.00670922,736,0.0319913,736,0.0412889,736,0.11775,
734,0.00385927,734,0.00668619,734,0.0327039,734,0.0424163,734,0.120724,
732,0.00382276,732,0.0066522,732,0.0334027,732,0.0436654,732,0.123738,
730,0.00392003,730,0.00674558,730,0.0342052,730,0.0450208,730,0.126866,
728,0.00382757,728,0.00666882,728,0.0349987,728,0.0462303,728,0.130017,
726,0.00376746,726,0.00677582,726,0.0358098,726,0.047621,726,0.133258,
724,0.00389785,724,0.00673609,724,0.0367148,724,0.0490769,724,0.136708,
722,0.00376571,722,0.00676033,722,0.0375508,722,0.0505031,722,0.14018,
720,0.00384175,720,0.00688902,720,0.0384293,720,0.0521879,720,0.143875,
718,0.00382953,718,0.00683083,718,0.0394341,718,0.0536608,718,0.147737,
716,0.0037685,716,0.0067795,716,0.0403221,716,0.0553192,716,0.151731,
714,0.00382496,714,0.00679464,714,0.0414316,714,0.0569952,714,0.156097,
712,0.00376445,712,0.00676535,712,0.0424507,712,0.0587108,712,0.160576,
710,0.00375004,710,0.00675244,710,0.0434698,710,0.0605872,710,0.165061,
708,0.00371356,708,0.0068004,708,0.0445418,708,0.0624404,708,0.169934,
706,0.00377469,706,0.00685823,706,0.0457231,706,0.0643156,706,0.17502,
704,0.00376234,704,0.00686648,704,0.0469294,704,0.0663282,704,0.180191,
702,0.00378325,702,0.00683811,702,0.0480158,702,0.0684311,702,0.185596,
700,0.00390038,700,0.00697835,700,0.0493478,700,0.0705179,700,0.191204,
698,0.00383055,698,0.00687422,698,0.0505753,698,0.0724846,698,0.196865,
696,0.00381472,696,0.00693447,696,0.0517369,696,0.0747292,696,0.202756,
694,0.00388602,694,0.00698461,694,0.053049,694,0.0768742,694,0.20891,
692,0.00381224,692,0.00696056,692,0.0543518,692,0.079024,692,0.215084,
690,0.00389568,690,0.00698071,690,0.0556347,690,0.0813582,690,0.22154,
688,0.0038342,688,0.00697051,688,0.0569343,688,0.0835066,688,0.227941,
686,0.0039434,686,0.00710589,686,0.0582797,686,0.0858001,686,0.23458,
684,0.00395163,684,0.00716271,684,0.0597832,684,0.088275,684,0.24138,
682,0.00407923,682,0.00724835,682,0.0611519,682,0.0906387,682,0.248277,
680,0.00416239,680,0.00742856,680,0.0626689,680,0.0931542,680,0.255414,
678,0.00413636,678,0.00746679,678,0.0641796,678,0.0956449,678,0.262561,
676,0.00426213,676,0.00745281,676,0.0655355,676,0.0980617,676,0.269775,
674,0.00429217,674,0.00751057,674,0.0670326,674,0.100563,674,0.277217,
672,0.00430956,672,0.00757183,672,0.0685311,672,0.10311,672,0.284736,
670,0.00433669,670,0.00754481,670,0.0699822,670,0.105649,670,0.292248,
668,0.00432383,668,0.00746082,668,0.0713512,668,0.108151,668,0.299876,
666,0.00412206,666,0.00737442,666,0.0727939,666,0.110678,666,0.307753,
664,0.00408381,664,0.00724819,664,0.0742617,664,0.113241,664,0.315422,
662,0.00397507,662,0.00708711,662,0.0756931,662,0.115802,662,0.32318,
660,0.00388072,660,0.00698584,660,0.077078,660,0.118332,660,0.331003,
658,0.00385457,658,0.0070025,658,0.0785975,658,0.120962,658,0.339005,
656,0.00381926,656,0.00696517,656,0.0800828,656,0.123736,656,0.346903,
654,0.00381556,654,0.00694328,654,0.081769,654,0.126376,654,0.354886,
652,0.00374085,652,0.00686549,652,0.0832496,652,0.129136,652,0.362786,
650,0.00376991,650,0.0069341,650,0.0848808,650,0.131806,650,0.370929,
648,0.0036896,648,0.00686701,648,0.0863843,648,0.134433,648,0.378727,
646,0.00371732,646,0.00691674,646,0.0880238,646,0.137187,646,0.386721,
644,0.0037086,644,0.0069229,644,0.0895864,644,0.13997,644,0.394616,
642,0.00367198,642,0.0069366,642,0.0911577,642,0.142653,642,0.402455,
640,0.0035927,640,0.00694297,640,0.0927185,640,0.14537,640,0.41034,
638,0.0035625,638,0.00687748,638,0.0942222,638,0.148101,638,0.418182,
636,0.00354945,636,0.00682362,636,0.0958041,636,0.150877,636,0.425948,
634,0.00352479,634,0.00685389,634,0.0972981,634,0.153605,634,0.433669,
632,0.00345927,632,0.00688421,632,0.0989655,632,0.15648,632,0.441408,
630,0.00344421,630,0.00691041,630,0.100576,630,0.159262,630,0.449112,
628,0.00340429,628,0.0069038,628,0.102172,628,0.162113,628,0.456781,
626,0.00336067,626,0.00693245,626,0.103723,626,0.16471,626,0.464247,
624,0.00324262,624,0.00688855,624,0.10519,624,0.167346,624,0.471726,
622,0.00327699,622,0.00698261,622,0.106845,622,0.170179,622,0.479241,
620,0.00336187,620,0.00704635,620,0.108491,620,0.172921,620,0.48673,
618,0.00336354,618,0.00710481,618,0.110015,618,0.175446,618,0.494037,
616,0.00339628,616,0.00712508,616,0.111616,616,0.178172,616,0.501309,
614,0.00367185,614,0.00731429,614,0.113433,614,0.181049,614,0.508888,
612,0.00365276,612,0.00741718,612,0.114973,612,0.183659,612,0.515961,
610,0.0038436,610,0.00752134,610,0.116472,610,0.186198,610,0.522972,
608,0.00393962,608,0.00760745,608,0.118029,608,0.188768,608,0.529995,
606,0.00404777,606,0.0076517,606,0.119516,606,0.191309,606,0.536619,
604,0.00431999,604,0.00786173,604,0.121001,604,0.193686,604,0.543316,
602,0.00444105,602,0.0079854,602,0.122394,602,0.196072,602,0.549755,
600,0.00456095,600,0.00804716,600,0.123748,600,0.198312,600,0.555924,
598,0.00464093,598,0.00807302,598,0.125042,598,0.200486,598,0.561991,
596,0.00486519,596,0.00817987,596,0.126364,596,0.202724,596,0.567839,
594,0.00503865,594,0.0082478,594,0.127751,594,0.204886,594,0.573489,
592,0.00519371,592,0.00831819,592,0.128874,592,0.206937,592,0.578876,
590,0.00542339,590,0.00829257,590,0.130043,590,0.20889,590,0.583855,
588,0.00594391,588,0.00849346,588,0.131323,588,0.210989,588,0.588832,
586,0.00631318,586,0.00864187,586,0.132358,586,0.212822,586,0.593243,
584,0.00666343,584,0.00865301,584,0.133344,584,0.214583,584,0.597347,
582,0.00729389,582,0.00891684,582,0.134488,582,0.216437,582,0.601169,
580,0.00792824,580,0.0089449,580,0.135382,580,0.218103,580,0.604686,
578,0.00868266,578,0.00910795,578,0.136308,578,0.219775,578,0.607701,
576,0.00967502,576,0.00934926,576,0.137196,576,0.221505,576,0.610411,
574,0.0110019,574,0.00975375,574,0.138217,574,0.223308,574,0.613022,
572,0.0123758,572,0.00993521,572,0.139056,572,0.224963,572,0.614931,
570,0.014078,570,0.0103479,570,0.139767,570,0.226648,570,0.616687,
568,0.0158342,568,0.0106577,568,0.140402,568,0.22837,568,0.617915,
566,0.0185358,566,0.0111419,566,0.141358,566,0.230334,566,0.618941,
564,0.0215487,564,0.0118561,564,0.14209,564,0.23238,564,0.61964,
562,0.0251564,562,0.0124752,562,0.143035,562,0.234546,562,0.62,
560,0.0295176,560,0.0133229,560,0.144039,560,0.236989,560,0.620177,
558,0.0348873,558,0.0142408,558,0.144955,558,0.239558,558,0.62006,
556,0.0410366,556,0.0152219,556,0.145932,556,0.242389,556,0.619505,
554,0.0484609,554,0.016464,554,0.146969,554,0.245706,554,0.618876,
552,0.0572759,552,0.0177805,552,0.148101,552,0.249368,552,0.617948,
550,0.0673949,550,0.0192898,550,0.149142,550,0.253327,550,0.616636,
548,0.0793109,548,0.0210324,548,0.150509,548,0.257976,548,0.61522,
546,0.0929818,546,0.0231041,546,0.151943,546,0.263307,546,0.613567,
544,0.108529,544,0.0253216,544,0.153431,544,0.269096,544,0.61172,
542,0.125805,542,0.0277372,542,0.154979,542,0.275332,542,0.609504,
540,0.145211,540,0.0304946,540,0.156628,540,0.282193,540,0.606966,
538,0.166314,538,0.0334666,538,0.158431,538,0.28961,538,0.60426,
536,0.189248,536,0.0368914,536,0.160507,536,0.297585,536,0.60149,
534,0.213898,534,0.0405876,534,0.162663,534,0.306091,534,0.598194,
532,0.24001,532,0.0446606,532,0.164945,532,0.31512,532,0.594739,
530,0.267313,530,0.0489191,530,0.167368,530,0.324699,530,0.591065,
528,0.295443,528,0.0535919,528,0.169876,528,0.334289,528,0.587075,
526,0.32444,526,0.0585413,526,0.172626,526,0.344206,526,0.583029,
524,0.353454,524,0.0635789,524,0.175366,524,0.354085,524,0.578448,
522,0.382602,522,0.0690594,522,0.178293,522,0.364112,522,0.573678,
520,0.411398,520,0.0746299,520,0.181177,520,0.373992,520,0.568761,
518,0.439814,518,0.0803404,518,0.184229,518,0.383744,518,0.563573,
516,0.467633,516,0.0862098,516,0.187201,516,0.393337,516,0.558217,
514,0.494866,514,0.0922472,514,0.190313,514,0.402861,514,0.552689,
512,0.521783,512,0.0984414,512,0.193402,512,0.41211,512,0.546788,
510,0.548282,510,0.104794,510,0.196536,510,0.421225,510,0.540779,
508,0.574353,508,0.1112,508,0.19981,508,0.430374,508,0.5346,
506,0.599935,506,0.117606,506,0.202975,506,0.43915,506,0.528116,
504,0.625203,504,0.12424,504,0.206138,504,0.447887,504,0.521547,
502,0.650095,502,0.130937,502,0.209381,502,0.456434,502,0.514832,
500,0.674611,500,0.137704,500,0.212618,500,0.464867,500,0.508013,
498,0.698609,498,0.144655,498,0.215853,498,0.473108,498,0.501015,
496,0.7221,496,0.151548,496,0.219113,496,0.481119,496,0.493834,
494,0.744715,494,0.158634,494,0.222433,494,0.488899,494,0.486782,
492,0.766468,492,0.165654,492,0.225557,492,0.496215,492,0.479458,
490,0.786983,490,0.172953,490,0.228876,490,0.503329,490,0.47226,
488,0.806184,488,0.180087,488,0.23209,488,0.509937,488,0.464732,
486,0.823795,486,0.187464,486,0.23541,486,0.515998,486,0.457364,
484,0.839643,484,0.194684,484,0.238612,484,0.521621,484,0.449973,
482,0.853799,482,0.201799,482,0.241811,482,0.526649,482,0.442563,
480,0.865984,480,0.209009,480,0.244938,480,0.530943,480,0.435078,
478,0.876189,478,0.216089,478,0.248092,478,0.534746,478,0.427747,
476,0.884607,476,0.222946,476,0.251296,476,0.537946,476,0.420413,
474,0.891192,474,0.229839,474,0.254504,474,0.540551,474,0.413193,
472,0.896014,472,0.2364,472,0.25753,472,0.542665,472,0.406062,
470,0.899411,470,0.242885,470,0.260611,470,0.544226,470,0.399113,
468,0.901212,468,0.24928,468,0.263604,468,0.545193,468,0.392116,
466,0.901838,466,0.255518,466,0.266588,466,0.545975,466,0.385258,
464,0.90117,464,0.261453,464,0.269674,464,0.546157,464,0.378584,
462,0.899098,462,0.267351,462,0.272532,462,0.545893,462,0.372027,
460,0.89592,460,0.273038,460,0.275278,460,0.545244,460,0.365696,
458,0.891675,458,0.278578,458,0.278107,458,0.544248,458,0.359731,
456,0.886249,456,0.283959,456,0.280838,456,0.542903,456,0.354025,
454,0.879677,454,0.28926,454,0.283583,454,0.541103,454,0.348804,
452,0.871945,452,0.294437,452,0.286367,452,0.538994,452,0.343846,
450,0.863214,450,0.299293,450,0.289048,450,0.536499,450,0.3392,
448,0.853594,448,0.304024,448,0.29172,448,0.533842,448,0.33496,
446,0.842798,446,0.308666,446,0.294381,446,0.530732,446,0.331025,
444,0.831292,444,0.313151,444,0.297139,444,0.527456,444,0.327623,
442,0.819088,442,0.317388,442,0.300056,442,0.524046,442,0.324776,
440,0.806219,440,0.321538,440,0.302916,440,0.520595,440,0.322358,
438,0.793004,438,0.325983,438,0.305886,438,0.517095,438,0.320507,
436,0.779229,436,0.329749,436,0.308925,436,0.513516,436,0.31909,
434,0.765147,434,0.333091,434,0.311771,434,0.509697,434,0.317896,
432,0.751283,432,0.336685,432,0.31503,432,0.506307,432,0.31732,
430,0.73694,430,0.339722,430,0.317993,430,0.502672,430,0.317192,
428,0.722685,428,0.342752,428,0.321069,428,0.499125,428,0.317824,
426,0.708474,426,0.345664,426,0.324471,426,0.495869,426,0.319056,
424,0.694255,424,0.348275,424,0.327715,424,0.492571,424,0.320849,
422,0.680363,422,0.350985,422,0.331055,422,0.489602,422,0.323421,
420,0.666474,420,0.353334,420,0.334128,420,0.486768,420,0.326901,
418,0.652934,418,0.35561,418,0.337409,418,0.48406,418,0.33095,
416,0.639986,416,0.3581,416,0.341071,416,0.482173,416,0.335992,
414,0.627203,414,0.36013,414,0.344614,414,0.480296,414,0.341485,
412,0.614863,412,0.362263,412,0.348313,412,0.47891,412,0.34784,
410,0.603055,410,0.364263,410,0.352173,410,0.478116,410,0.354885,
408,0.591888,408,0.366402,408,0.356321,408,0.478021,408,0.362896,
406,0.581365,406,0.368524,406,0.360687,406,0.478454,406,0.371539,
404,0.571544,404,0.370629,404,0.365197,404,0.479619,404,0.380816,
402,0.562534,402,0.372847,402,0.370102,402,0.481635,402,0.390882,
400,0.554184,400,0.375029,400,0.374993,400,0.484273,400,0.401234,
398,0.547038,398,0.377435,398,0.380238,398,0.487839,398,0.412098,
396,0.540588,396,0.379718,396,0.385673,396,0.492052,396,0.423248,
394,0.535428,394,0.382384,394,0.391587,394,0.497298,394,0.434975,
392,0.531295,392,0.385344,392,0.397798,392,0.503363,392,0.447169,
390,0.528647,390,0.38873,390,0.40438,390,0.510396,390,0.460082,
388,0.527308,388,0.392362,388,0.41143,388,0.51848,388,0.473535,
386,0.527624,386,0.396645,386,0.419086,386,0.52758,386,0.487638,
384,0.52968,384,0.401467,384,0.427255,384,0.537679,384,0.5021,
382,0.533453,382,0.406904,382,0.436131,382,0.548919,382,0.517333,
380,0.539641,380,0.413491,380,0.44593,380,0.56141,380,0.533148,
378,0.547368,378,0.420544,378,0.456428,378,0.574978,378,0.548987,
376,0.557114,376,0.42902,376,0.468003,376,0.589589,376,0.565128,
374,0.568316,374,0.438408,374,0.480554,374,0.604936,374,0.581257,
372,0.580599,372,0.448938,372,0.494134,372,0.621134,372,0.597311,
370,0.593554,370,0.460359,370,0.508775,370,0.637911,370,0.613642,
368,0.606187,368,0.472227,368,0.523994,368,0.654688,368,0.6303,
366,0.618275,366,0.484323,366,0.539661,366,0.672143,366,0.64838,
364,0.628691,364,0.495216,364,0.554906,364,0.689775,364,0.668648,
362,0.637325,362,0.504739,362,0.56958,362,0.708613,362,0.69344,
360,0.643604,360,0.512037,360,0.583131,360,0.72882,360,0.724522,
358,0.647496,358,0.516755,358,0.595652,358,0.751682,358,0.763133,
356,0.649259,356,0.519315,356,0.606925,356,0.775626,356,0.807382,
354,0.648862,354,0.519989,354,0.616554,354,0.799122,354,0.85291,
352,0.646712,352,0.519699,352,0.623935,352,0.818162,352,0.891845,
350,0.642736,350,0.51831,350,0.627537,350,0.828118,350,0.916161,
348,0.636721,348,0.515955,348,0.626691,348,0.826795,348,0.920689,
346,0.629129,346,0.512736,346,0.62168,346,0.816406,346,0.90922,
344,0.619169,344,0.508015,344,0.614066,344,0.800506,344,0.889967,
342,0.607023,342,0.501181,342,0.604785,342,0.784891,342,0.873013,
340,0.592343,340,0.491802,340,0.595049,340,0.77282,340,0.865524,
338,0.575425,338,0.480167,338,0.586076,338,0.766609,338,0.870637,
336,0.556676,336,0.466728,336,0.57718,336,0.765087,336,0.886148,
334,0.536781,334,0.453023,334,0.569056,334,0.766225,334,0.906296,
332,0.515783,332,0.43901,332,0.55977,332,0.764374,332,0.92103,
330,0.494206,330,0.425131,330,0.548103,330,0.755594,330,0.922221,
328,0.472401,328,0.411343,328,0.532979,328,0.737083,328,0.905145,
326,0.450664,326,0.397425,326,0.514784,326,0.711211,326,0.874991,
324,0.428622,324,0.382817,324,0.495053,324,0.682636,324,0.840886,
322,0.406781,322,0.368008,322,0.476243,322,0.657012,322,0.812215,
320,0.384701,320,0.35343,320,0.45918,320,0.636137,320,0.792728,
318,0.363597,318,0.33963,318,0.444258,318,0.619072,318,0.779885,
316,0.343038,316,0.326861,316,0.430077,316,0.602259,316,0.767119,
314,0.323672,314,0.315523,314,0.415808,314,0.582634,314,0.748021,
312,0.305223,312,0.305032,312,0.400582,312,0.558014,312,0.719477,
310,0.287914,310,0.295227,310,0.384446,310,0.529689,310,0.684476,
308,0.272038,308,0.286095,308,0.368654,308,0.501557,308,0.648678,
306,0.25741,306,0.277761,306,0.354509,306,0.476189,306,0.617252,
304,0.243827,304,0.270283,304,0.3423,304,0.45501,304,0.59247,
302,0.231935,302,0.26377,302,0.332176,302,0.43705,302,0.571924,
300,0.221382,300,0.258673,300,0.322973,300,0.42002,300,0.552065,

t=5hrs FeCl3 0uM,
t=5hrs FeCl3 0uM
Collection Time: 2024-09-11 4:07:01 PM
Operator Name  :
Scan Version 6.4.0.1610
Parameter List :
Instrument  Cary 7000
Instrument Version  3.07
Method Log     :
Method Name    :
Date/Time stamp: 2024-09-11 3:56:56 PM
Method Modifications:
ConcentrationReportSelected Changed: 2024-09-11 3:56:57 PM, Old:Choice 0, New:Choice 1
ConcentrationReportSelected Changed: 2024-09-11 3:56:57 PM, Old:ON, New:Choice 0
MCAReportSelected Changed: 2024-09-11 3:56:57 PM, Old:Choice 0, New:Choice 1
MCAReportSelected Changed: 2024-09-11 3:56:57 PM, Old:ON, New:Choice 0
X Start nm Changed: 2024-09-11 3:59:31 PM, Old:800.000, New:1400.000
X Stop nm Changed: 2024-09-11 3:59:31 PM, Old:200.000, New:300.000
UVVIS Scan Rate nm Changed: 2024-09-11 3:59:31 PM, Old:  602.007, New:  600.000
NIR Scan Rate nm Changed: 2024-09-11 3:59:31 PM, Old:    0.004, New:   12.000
Source changeover Changed: 2024-09-11 3:59:31 PM, Old:   350.00, New:   300.00
Detector changeover Changed: 2024-09-11 3:59:31 PM, Old:   800.00, New:   900.00
Grating changeover Changed: 2024-09-11 3:59:31 PM, Old:   800.00, New:   900.00
Baseline Correction Changed: 2024-09-11 3:59:31 PM, Old:0, New:2
Sipper Type Changed: 2024-09-11 3:59:31 PM, Old:Internal RSA, New:External sipper
End Method Modifications
<Current Wavelength> , 300.000
<SBW (nm)> , 2.00
<Energy> , 57.54
<Slit Height> , Full

t=5hrs FeCl3 5uM,
t=5hrs FeCl3 5uM
Collection Time: 2024-09-11 4:10:42 PM
Operator Name  :
Scan Version 6.4.0.1610
Parameter List :
Instrument  Cary 7000
Instrument Version  3.07
Method Log     :
Method Name    :
Date/Time stamp: 2024-09-11 3:56:56 PM
Method Modifications:
ConcentrationReportSelected Changed: 2024-09-11 3:56:57 PM, Old:Choice 0, New:Choice 1
ConcentrationReportSelected Changed: 2024-09-11 3:56:57 PM, Old:ON, New:Choice 0
MCAReportSelected Changed: 2024-09-11 3:56:57 PM, Old:Choice 0, New:Choice 1
MCAReportSelected Changed: 2024-09-11 3:56:57 PM, Old:ON, New:Choice 0
X Start nm Changed: 2024-09-11 3:59:31 PM, Old:800.000, New:1400.000
X Stop nm Changed: 2024-09-11 3:59:31 PM, Old:200.000, New:300.000
UVVIS Scan Rate nm Changed: 2024-09-11 3:59:31 PM, Old:  602.007, New:  600.000
NIR Scan Rate nm Changed: 2024-09-11 3:59:31 PM, Old:    0.004, New:   12.000
Source changeover Changed: 2024-09-11 3:59:31 PM, Old:   350.00, New:   300.00
Detector changeover Changed: 2024-09-11 3:59:31 PM, Old:   800.00, New:   900.00
Grating changeover Changed: 2024-09-11 3:59:31 PM, Old:   800.00, New:   900.00
Baseline Correction Changed: 2024-09-11 3:59:31 PM, Old:0, New:2
Sipper Type Changed: 2024-09-11 3:59:31 PM, Old:Internal RSA, New:External sipper
End Method Modifications
<Current Wavelength> , 300.000
<SBW (nm)> , 2.00
<Energy> , 60.26
<Slit Height> , Full

t=5hrs FeCl3 20uM,
t=5hrs FeCl3 20uM
Collection Time: 2024-09-11 4:14:25 PM
Operator Name  :
Scan Version 6.4.0.1610
Parameter List :
Instrument  Cary 7000
Instrument Version  3.07
Method Log     :
Method Name    :
Date/Time stamp: 2024-09-11 3:56:56 PM
Method Modifications:
ConcentrationReportSelected Changed: 2024-09-11 3:56:57 PM, Old:Choice 0, New:Choice 1
ConcentrationReportSelected Changed: 2024-09-11 3:56:57 PM, Old:ON, New:Choice 0
MCAReportSelected Changed: 2024-09-11 3:56:57 PM, Old:Choice 0, New:Choice 1
MCAReportSelected Changed: 2024-09-11 3:56:57 PM, Old:ON, New:Choice 0
X Start nm Changed: 2024-09-11 3:59:31 PM, Old:800.000, New:1400.000
X Stop nm Changed: 2024-09-11 3:59:31 PM, Old:200.000, New:300.000
UVVIS Scan Rate nm Changed: 2024-09-11 3:59:31 PM, Old:  602.007, New:  600.000
NIR Scan Rate nm Changed: 2024-09-11 3:59:31 PM, Old:    0.004, New:   12.000
Source changeover Changed: 2024-09-11 3:59:31 PM, Old:   350.00, New:   300.00
Detector changeover Changed: 2024-09-11 3:59:31 PM, Old:   800.00, New:   900.00
Grating changeover Changed: 2024-09-11 3:59:31 PM, Old:   800.00, New:   900.00
Baseline Correction Changed: 2024-09-11 3:59:31 PM, Old:0, New:2
Sipper Type Changed: 2024-09-11 3:59:31 PM, Old:Internal RSA, New:External sipper
End Method Modifications
<Current Wavelength> , 300.000
<SBW (nm)> , 2.00
<Energy> , 72.44
<Slit Height> , Full

t=5hrs FeCl3 50uM,
t=5hrs FeCl3 50uM
Collection Time: 2024-09-11 4:18:03 PM
Operator Name  :
Scan Version 6.4.0.1610
Parameter List :
Instrument  Cary 7000
Instrument Version  3.07
Method Log     :
Method Name    :
Date/Time stamp: 2024-09-11 3:56:56 PM
Method Modifications:
ConcentrationReportSelected Changed: 2024-09-11 3:56:57 PM, Old:Choice 0, New:Choice 1
ConcentrationReportSelected Changed: 2024-09-11 3:56:57 PM, Old:ON, New:Choice 0
MCAReportSelected Changed: 2024-09-11 3:56:57 PM, Old:Choice 0, New:Choice 1
MCAReportSelected Changed: 2024-09-11 3:56:57 PM, Old:ON, New:Choice 0
X Start nm Changed: 2024-09-11 3:59:31 PM, Old:800.000, New:1400.000
X Stop nm Changed: 2024-09-11 3:59:31 PM, Old:200.000, New:300.000
UVVIS Scan Rate nm Changed: 2024-09-11 3:59:31 PM, Old:  602.007, New:  600.000
NIR Scan Rate nm Changed: 2024-09-11 3:59:31 PM, Old:    0.004, New:   12.000
Source changeover Changed: 2024-09-11 3:59:31 PM, Old:   350.00, New:   300.00
Detector changeover Changed: 2024-09-11 3:59:31 PM, Old:   800.00, New:   900.00
Grating changeover Changed: 2024-09-11 3:59:31 PM, Old:   800.00, New:   900.00
Baseline Correction Changed: 2024-09-11 3:59:31 PM, Old:0, New:2
Sipper Type Changed: 2024-09-11 3:59:31 PM, Old:Internal RSA, New:External sipper
End Method Modifications
<Current Wavelength> , 300.000
<SBW (nm)> , 2.00
<Energy> , 72.44
<Slit Height> , Full

t=5hrs FeCl3 100uM,
t=5hrs FeCl3 100uM
Collection Time: 2024-09-11 4:21:40 PM
Operator Name  :
Scan Version 6.4.0.1610
Parameter List :
Instrument  Cary 7000
Instrument Version  3.07
Method Log     :
Method Name    :
Date/Time stamp: 2024-09-11 3:56:56 PM
Method Modifications:
ConcentrationReportSelected Changed: 2024-09-11 3:56:57 PM, Old:Choice 0, New:Choice 1
ConcentrationReportSelected Changed: 2024-09-11 3:56:57 PM, Old:ON, New:Choice 0
MCAReportSelected Changed: 2024-09-11 3:56:57 PM, Old:Choice 0, New:Choice 1
MCAReportSelected Changed: 2024-09-11 3:56:57 PM, Old:ON, New:Choice 0
X Start nm Changed: 2024-09-11 3:59:31 PM, Old:800.000, New:1400.000
X Stop nm Changed: 2024-09-11 3:59:31 PM, Old:200.000, New:300.000
UVVIS Scan Rate nm Changed: 2024-09-11 3:59:31 PM, Old:  602.007, New:  600.000
NIR Scan Rate nm Changed: 2024-09-11 3:59:31 PM, Old:    0.004, New:   12.000
Source changeover Changed: 2024-09-11 3:59:31 PM, Old:   350.00, New:   300.00
Detector changeover Changed: 2024-09-11 3:59:31 PM, Old:   800.00, New:   900.00
Grating changeover Changed: 2024-09-11 3:59:31 PM, Old:   800.00, New:   900.00
Baseline Correction Changed: 2024-09-11 3:59:31 PM, Old:0, New:2
Sipper Type Changed: 2024-09-11 3:59:31 PM, Old:Internal RSA, New:External sipper
End Method Modifications
<Current Wavelength> , 299.000
<SBW (nm)> , 2.00
<Energy> , 72.44
<Slit Height> , Full