File: UV-Vis data/2024_09/2024_09_11_imine polymer t=3hrs FeCl3 solution doping.csv
t=3hrs FeCl3 0uM,,t=3hrs FeCl3 5uM,,t=3hrs FeCl3 20uM,,t=3hrs FeCl3 50uM,,t=3hrs FeCl3 100uM,,
Wavelength (nm),Abs,Wavelength (nm),Abs,Wavelength (nm),Abs,Wavelength (nm),Abs,Wavelength (nm),Abs,
1400,0.00613343,1400,0.00603604,1400,0.0102921,1400,0.00626267,1400,0.00618602,
1398,0.00543927,1398,0.0051739,1398,0.00896581,1398,0.0055105,1398,0.0056159,
1396,0.00424044,1396,0.00391023,1396,0.00713702,1396,0.00465901,1396,0.00469357,
1394,0.0031848,1394,0.00242359,1394,0.00486393,1394,0.00282377,1394,0.00337559,
1392,0.00235056,1392,0.00199084,1392,0.00399769,1392,0.00304539,1392,0.00317735,
1390,0.00198946,1390,0.00114411,1390,0.00283914,1390,0.00182077,1390,0.00224857,
1388,0.00161125,1388,0.00117731,1388,0.00277085,1388,0.00232006,1388,0.00247522,
1386,0.00144139,1386,0.000770921,1386,0.00218051,1386,0.00163248,1386,0.00202982,
1384,0.00127048,1384,0.000737107,1384,0.0021245,1384,0.00162905,1384,0.00197498,
1382,0.0012631,1382,0.00069518,1382,0.0020389,1382,0.00180489,1382,0.00210286,
1380,0.00126632,1380,0.000918084,1380,0.00200886,1380,0.00175855,1380,0.00220176,
1378,0.00116225,1378,0.000716441,1378,0.00181503,1378,0.00161222,1378,0.00202675,
1376,0.00126321,1376,0.000911702,1376,0.00201081,1376,0.00185095,1376,0.00222609,
1374,0.00123444,1374,0.000937125,1374,0.00199971,1374,0.00188876,1374,0.00224878,
1372,0.00111541,1372,0.00115112,1372,0.0021373,1372,0.00217817,1372,0.0023586,
1370,0.00114819,1370,0.000892688,1370,0.00180185,1370,0.00165189,1370,0.00210829,
1368,0.00115436,1368,0.0010251,1368,0.00190565,1368,0.00195865,1368,0.00222544,
1366,0.00114025,1366,0.0011335,1366,0.0019049,1366,0.00208387,1366,0.00229614,
1364,0.00102531,1364,0.000814411,1364,0.00164838,1364,0.00162799,1364,0.00192833,
1362,0.000926566,1362,0.0010305,1362,0.00179057,1362,0.00236701,1362,0.00219437,
1360,0.000804193,1360,0.000673894,1360,0.00128987,1360,0.00164306,1360,0.0018353,
1358,0.000806657,1358,0.000882546,1358,0.00142046,1358,0.00204472,1358,0.00198322,
1356,0.000744186,1356,0.000732025,1356,0.00119743,1356,0.00190628,1356,0.0018553,
1354,0.000682735,1354,0.000679131,1354,0.00122486,1354,0.00205996,1354,0.00187199,
1352,0.000684006,1352,0.000533112,1352,0.00102518,1352,0.00187264,1352,0.00174176,
1350,0.000610458,1350,0.000544386,1350,0.00107383,1350,0.00201804,1350,0.00181248,
1348,0.000472546,1348,0.000281834,1348,0.000880082,1348,0.00178833,1348,0.00152355,
1346,0.000414891,1346,0.000254326,1346,0.000862107,1346,0.00178927,1346,0.00153524,
1344,0.00039735,1344,0.000181783,1344,0.000909523,1344,0.00181303,1344,0.00155043,
1342,0.000423157,1342,0.000136518,1342,0.00096823,1342,0.0018351,1342,0.00156667,
1340,0.000389318,1340,8.35938e-05,1340,0.000957412,1340,0.00176738,1340,0.00150973,
1338,0.000383592,1338,4.90826e-05,1338,0.000966647,1338,0.00175816,1338,0.00153196,
1336,0.000322089,1336,-6.16082e-06,1336,0.000957723,1336,0.00166928,1336,0.00143916,
1334,0.00033885,1334,-8.86763e-05,1334,0.000962471,1334,0.001578,1334,0.00146103,
1332,0.000361622,1332,-2.85772e-05,1332,0.000995524,1332,0.00159081,1332,0.0015728,
1330,0.000368047,1330,-8.29307e-05,1330,0.000995602,1330,0.00152251,1330,0.00157875,
1328,0.000306676,1328,-0.000166156,1328,0.000952508,1328,0.00142817,1328,0.00149547,
1326,0.000323333,1326,-0.00015534,1326,0.0009784,1326,0.00134323,1326,0.0015348,
1324,0.000344679,1324,-0.000145558,1324,0.000966933,1324,0.00135312,1324,0.00157234,
1322,0.00032082,1322,-0.000215318,1322,0.000974327,1322,0.00127499,1322,0.0015979,
1320,0.000304578,1320,-0.00020176,1320,0.000928694,1320,0.00125064,1320,0.0015939,
1318,0.000193593,1318,-0.000238344,1318,0.000880445,1318,0.00112665,1318,0.00148264,
1316,0.000252358,1316,-0.000250659,1316,0.000937306,1316,0.00109942,1316,0.00151916,
1314,0.000313877,1314,-0.000274356,1314,0.000905503,1314,0.00114178,1314,0.00151238,
1312,0.000240055,1312,-0.000328058,1312,0.000905243,1312,0.00106597,1312,0.00144916,
1310,0.000117771,1310,-0.000447183,1310,0.000704514,1310,0.000948409,1310,0.0012232,
1308,0.000263962,1308,-0.000345544,1308,0.000886541,1308,0.00108286,1308,0.00139347,
1306,0.000232052,1306,-0.000319833,1306,0.00088431,1306,0.0010627,1306,0.00133294,
1304,0.000232674,1304,-0.00034544,1304,0.000828208,1304,0.00109594,1304,0.0014188,
1302,0.000209649,1302,-0.000338353,1302,0.000846338,1302,0.00108621,1302,0.00126817,
1300,0.000221951,1300,-0.000332094,1300,0.000873079,1300,0.00106937,1300,0.00126624,
1298,0.000156716,1298,-0.000374822,1298,0.000837934,1298,0.00106851,1298,0.00123566,
1296,0.000176216,1296,-0.000335042,1296,0.000865272,1296,0.00105481,1296,0.00123896,
1294,0.000229255,1294,-0.000308296,1294,0.000941301,1294,0.00106091,1294,0.00125664,
1292,0.000295796,1292,-0.000243933,1292,0.00100863,1292,0.00109919,1292,0.00135634,
1290,0.000157363,1290,-0.000356355,1290,0.000960836,1290,0.00102235,1290,0.00133349,
1288,0.000195017,1288,-0.000287498,1288,0.000993396,1288,0.00112833,1288,0.00139363,
1286,0.000204754,1286,-0.000285584,1286,0.00101428,1286,0.00108868,1286,0.00141776,
1284,0.000168835,1284,-0.000228772,1284,0.00101532,1284,0.0010811,1284,0.00137844,
1282,0.000210297,1282,-0.00020947,1282,0.00104843,1282,0.00116067,1282,0.00137831,
1280,0.000192764,1280,-0.000232911,1280,0.00100738,1280,0.00107625,1280,0.00136392,
1278,0.000154101,1278,-0.000270631,1278,0.00100274,1278,0.00105871,1278,0.00137309,
1276,0.000150113,1276,-0.000225615,1276,0.00100658,1276,0.00111061,1276,0.00138236,
1274,0.000167385,1274,-0.000244605,1274,0.00105025,1274,0.00112748,1274,0.00138093,
1272,0.000115467,1272,-0.000216146,1272,0.00103574,1272,0.0011193,1272,0.00140854,
1270,0.000235937,1270,-0.000192445,1270,0.00111998,1270,0.00119587,1270,0.00145612,
1268,0.000173807,1268,-0.000220855,1268,0.00112914,1268,0.00120018,1268,0.00142988,
1266,0.000225266,1266,-0.000206728,1266,0.00114198,1266,0.00129138,1266,0.00145191,
1264,0.00017057,1264,-0.000219095,1264,0.00107786,1264,0.00121739,1264,0.00141469,
1262,0.000202398,1262,-0.000213714,1262,0.00111585,1262,0.00123208,1262,0.0014604,
1260,0.000179945,1260,-0.000194101,1260,0.00110817,1260,0.00125651,1260,0.00141955,
1258,0.000159616,1258,-0.000151251,1258,0.00109273,1258,0.00133933,1258,0.00147586,
1256,0.000223168,1256,-0.000186235,1256,0.0010919,1256,0.00134681,1256,0.00146705,
1254,0.000185202,1254,-0.000235964,1254,0.00101078,1254,0.00127299,1254,0.00142121,
1252,0.000167385,1252,-0.000194671,1252,0.000985898,1252,0.00127549,1252,0.00141726,
1250,0.000195923,1250,-0.000161912,1250,0.00101926,1250,0.0013459,1250,0.00151711,
1248,0.000266112,1248,-0.000180181,1248,0.000974612,1248,0.00136078,1248,0.00158135,
1246,0.000237103,1246,-0.000164914,1246,0.000956166,1246,0.00132744,1246,0.00158725,
1244,0.000208691,1244,-0.000207711,1244,0.00089012,1244,0.00127258,1244,0.00164584,
1242,0.000207008,1242,-0.000203261,1242,0.000892844,1242,0.00128203,1242,0.00168131,
1240,0.000240314,1240,-0.000222355,1240,0.000857413,1240,0.00128699,1240,0.00174056,
1238,0.000238734,1238,-0.000175678,1238,0.000878474,1238,0.00127803,1238,0.00177968,
1236,0.000257927,1236,-0.000172729,1236,0.000818301,1236,0.00127434,1236,0.00179174,
1234,0.000212576,1234,-0.000239172,1234,0.000772658,1234,0.00126058,1234,0.00179036,
1232,0.000257849,1232,-0.000240362,1232,0.000749657,1232,0.00125363,1232,0.00176972,
1230,0.000242723,1230,-0.000202278,1230,0.000725776,1230,0.0012469,1230,0.00178649,
1228,0.00024653,1228,-0.00022458,1228,0.000718697,1228,0.00125321,1228,0.00179551,
1226,0.000256036,1226,-0.000184838,1226,0.000708922,1226,0.00126952,1226,0.00182051,
1224,0.000315716,1224,-0.000160205,1224,0.000718204,1224,0.00128343,1224,0.00184971,
1222,0.000253265,1222,-0.00027358,1222,0.000700729,1222,0.00118998,1222,0.00181401,
1220,0.000259092,1220,-0.000200518,1220,0.000614631,1220,0.00118883,1220,0.0018,
1218,0.000267018,1218,-0.00021211,1218,0.00061502,1218,0.00119571,1218,0.00175982,
1216,0.000289165,1216,-0.000233222,1216,0.00058057,1216,0.00117217,1216,0.00174563,
1214,0.000266578,1214,-0.000267372,1214,0.000623678,1214,0.00120534,1214,0.00179722,
1212,0.000238346,1212,-0.000283928,1212,0.000561415,1212,0.00115423,1212,0.00181544,
1210,0.000225033,1210,-0.000264733,1210,0.000526218,1210,0.00119576,1210,0.00179717,
1208,0.000233554,1208,-0.000304881,1208,0.000540214,1208,0.00120742,1208,0.00180863,
1206,0.00024407,1206,-0.000304364,1206,0.00055211,1206,0.00119099,1206,0.00177097,
1204,0.000260931,1204,-0.000271925,1204,0.000522849,1204,0.00123021,1204,0.00180947,
1202,0.000240573,1202,-0.000282428,1202,0.000508906,1202,0.0012197,1202,0.0017725,
1200,0.00027971,1200,-0.000241397,1200,0.000521682,1200,0.00124649,1200,0.00181162,
1198,0.000207888,1198,-0.000391633,1198,0.00042225,1198,0.00120892,1198,0.0016712,
1196,0.000214933,1196,-0.000394427,1196,0.000401133,1196,0.00117965,1196,0.00170984,
1194,0.000157467,1194,-0.000405392,1194,0.000384629,1194,0.00117399,1194,0.00176086,
1192,0.000186367,1192,-0.000401616,1192,0.000437616,1192,0.00120433,1192,0.00182166,
1190,0.000200119,1190,-0.000449614,1190,0.000366026,1190,0.00121261,1190,0.00182673,
1188,0.000172979,1188,-0.000461198,1188,0.000404786,1188,0.00119579,1188,0.00185589,
1186,0.000193489,1186,-0.000465905,1186,0.000394578,1186,0.00119096,1186,0.00185158,
1184,0.00012875,1184,-0.000582096,1184,0.000402169,1184,0.00113474,1184,0.00185218,
1182,0.000171891,1182,-0.000517721,1182,0.000418415,1182,0.00118055,1182,0.00189892,
1180,0.000124478,1180,-0.000538715,1180,0.00040147,1180,0.00114198,1180,0.00189723,
1178,0.000143302,1178,-0.000522013,1178,0.000445156,1178,0.00116508,1178,0.00187851,
1176,0.000210426,1176,-0.000555003,1176,0.000494652,1176,0.00122938,1176,0.00196463,
1174,0.000173471,1174,-0.000506293,1174,0.000503385,1174,0.00121391,1174,0.0019458,
1172,0.000123105,1172,-0.000577753,1172,0.000452852,1172,0.00121235,1172,0.001971127,
1170,0.000175335,1170,-0.000516739,1170,0.000522667,1170,0.00124374,1170,0.00209687,
1168,0.00016956,1168,-0.000539025,1168,0.000511368,1168,0.00125451,1168,0.00215532,
1166,0.000124995,1166,-0.000554331,1166,0.000463295,1166,0.00124127,1166,0.00225757,
1164,0.000135457,1164,-0.000559243,1164,0.000504033,1164,0.00126775,1164,0.00221834,
1162,0.000126031,1162,-0.000537216,1162,0.000545009,1162,0.00124908,1162,0.00235404,
1160,0.000112489,1160,-0.000693397,1160,0.000435931,1160,0.00122248,1160,0.00223871,
1158,9.49601e-05,1158,-0.000623714,1158,0.000426111,1158,0.00117445,1158,0.00233312,
1156,-0.000265664,1156,-0.000814385,1156,0.000446789,1156,0.000814281,1156,0.00199333,
1154,9.81189e-05,1154,-0.000992782,1154,0.000306209,1154,0.00104866,1154,0.0019342,
1152,0.000218688,1152,-0.000558209,1152,0.000660672,1152,0.00120293,1152,0.00249289,
1150,0.000196182,1150,-0.000267216,1150,0.000953494,1150,0.00121801,1150,0.00283255,
1148,0.000484156,1148,-0.000270579,1148,0.000927397,1148,0.00166496,1148,0.00282953,
1146,0.000195949,1146,-0.000432132,1146,0.000868955,1146,0.00145295,1146,0.00271169,
1144,0.000341959,1144,-0.000313159,1144,0.000892637,1144,0.00163194,1144,0.00289522,
1142,0.000132349,1142,-0.00040953,1142,0.000842888,1142,0.00159283,1142,0.00297327,
1140,9.89733e-05,1140,-0.000396496,1140,0.000841539,1140,0.00168643,1140,0.00300197,
1138,1.58943e-05,1138,-0.000403582,1138,0.000847842,1138,0.00177892,1138,0.00307863,
1136,6.60401e-05,1136,-0.000369443,1136,0.000971758,1136,0.00179312,1136,0.00316006,
1134,9.59699e-05,1134,-0.000373891,1134,0.000992462,1134,0.00190727,1134,0.00322509,
1132,0.000123079,1132,-0.000306278,1132,0.00107428,1132,0.0019335,1132,0.00329462,
1130,0.000127662,1130,-0.000374564,1130,0.00109542,1130,0.00188046,1130,0.00322947,
1128,4.38013e-05,1128,-0.00042515,1128,0.00107978,1128,0.00179686,1128,0.00316003,
1126,6.43055e-05,1126,-0.000474179,1126,0.00106569,1126,0.00170345,1126,0.00303114,
1124,0.000132841,1124,-0.000488504,1124,0.0010954,1124,0.00173318,1124,0.00303176,
1122,9.57886e-05,1122,-0.000577701,1122,0.000996561,1122,0.00165353,1122,0.00292998,
1120,0.000134343,1120,-0.000492848,1120,0.000990542,1120,0.00170644,1120,0.00292044,
1118,0.000135948,1118,-0.000446459,1118,0.0010078,1118,0.00175161,1118,0.00292039,
1116,5.02217e-05,1116,-0.00054642,1116,0.000866465,1116,0.00170657,1116,0.00275746,
1114,4.76069e-05,1114,-0.000615029,1114,0.000791174,1114,0.00162022,1114,0.0026682,
1112,0.000132401,1112,-0.000554175,1112,0.000838712,1112,0.00164431,1112,0.00271881,
1110,0.000150864,1110,-0.000586077,1110,0.000789229,1110,0.00168508,1110,0.0026633,
1108,0.000176242,1108,-0.000554227,1108,0.000823203,1108,0.0017134,1108,0.00267015,
1106,0.000188594,1106,-0.000499881,1106,0.000848776,1106,0.00173409,1106,0.00262155,
1104,0.000137399,1104,-0.000563482,1104,0.000761508,1104,0.00166689,1104,0.00258014,
1102,0.000305096,1102,-0.0005065,1102,0.000716623,1102,0.00181682,1102,0.00251633,
1100,0.000241298,1100,-0.000496726,1100,0.000812518,1100,0.00183926,1100,0.00266606,
1098,0.000219284,1098,-0.000598123,1098,0.000694895,1098,0.00179473,1098,0.00261746,
1096,0.000230731,1096,-0.000524133,1096,0.000783498,1096,0.00185587,1096,0.00268476,
1094,0.00026378,1094,-0.000523099,1094,0.000744627,1094,0.0019153,1094,0.00264332,
1092,0.000284813,1092,-0.000496882,1092,0.000670705,1092,0.001918,1092,0.00260296,
1090,0.00032613,1090,-0.000503242,1090,0.000676591,1090,0.00197778,1090,0.002589,
1088,0.00037854,1088,-0.000465129,1088,0.000695906,1088,0.00201024,1088,0.0026552,
1086,0.00038297,1086,-0.000463164,1086,0.000676228,1086,0.00209068,1086,0.00271847,
1084,0.000376416,1084,-0.000461353,1084,0.000669798,1084,0.00212621,1084,0.00275423,
1082,0.000383152,1082,-0.000473196,1082,0.000686572,1082,0.00207765,1082,0.00278654,
1080,0.000383826,1080,-0.000445062,1080,0.000694662,1080,0.00219216,1080,0.00290181,
1078,0.000445104,1078,-0.000438753,1078,0.000711255,1078,0.00219817,1078,0.00301117,
1076,0.000497062,1076,-0.000384909,1076,0.000734151,1076,0.00219497,1076,0.00312452,
1074,0.000510616,1074,-0.00039722,1074,0.000725101,1074,0.00222796,1074,0.00314319,
1072,0.000526659,1072,-0.000363649,1072,0.000744212,1072,0.00230262,1072,0.00322752,
1070,0.000542261,1070,-0.000372857,1070,0.000772918,1070,0.00236008,1070,0.00323685,
1068,0.000512819,1068,-0.000390858,1068,0.000822191,1068,0.00231821,1068,0.00324617,
1066,0.000571628,1066,-0.00034694,1066,0.000819235,1066,0.0023775,1066,0.00319137,
1064,0.000625234,1064,-0.000342181,1064,0.000922779,1064,0.00246407,1064,0.00325435,
1062,0.000558953,1062,-0.000381185,1062,0.000945711,1062,0.00247524,1062,0.00326815,
1060,0.000602992,1060,-0.0003293,1060,0.00102417,1060,0.00257074,1060,0.0032652,
1058,0.000644962,1058,-0.000276167,1058,0.00107181,1058,0.00266442,1058,0.00330104,
1056,0.000622434,1056,-0.000249831,1056,0.00107962,1056,0.00264426,1056,0.00328805,
1054,0.00065108,1054,-0.000228358,1054,0.00118149,1054,0.00271419,1054,0.00334473,
1052,0.000712656,1052,-0.000208384,1052,0.00127525,1052,0.00277275,1052,0.00337901,
1050,0.000618131,1050,-0.000303692,1050,0.0012252,1050,0.00273141,1050,0.00332666,
1048,0.000763867,1048,-0.000152079,1048,0.00135873,1048,0.00289602,1048,0.00341181,
1046,0.000733036,1046,-0.000213248,1046,0.00131017,1046,0.00290199,1046,0.00345413,
1044,0.00074779,1044,-0.000160049,1044,0.0013949,1044,0.00291348,1044,0.00341989,
1042,0.000792367,1042,-0.000131584,1042,0.00148991,1042,0.00298878,1042,0.00349796,
1040,0.000823436,1040,-0.00013676,1040,0.00154997,1040,0.00300004,1040,0.00348666,
1038,0.000815578,1038,-9.86143e-05,1038,0.0016059,1038,0.00305436,1038,0.00355449,
1036,0.000848542,1036,-0.000104101,1036,0.00165847,1036,0.00306896,1036,0.00358341,
1034,0.000827352,1034,-4.67475e-05,1034,0.00170257,1034,0.00315127,1034,0.0035862,
1032,0.000843407,1032,-7.91003e-05,1032,0.00168347,1032,0.00315234,1032,0.00361155,
1030,0.000862859,1030,-5.86019e-05,1030,0.00180895,1030,0.00318835,1030,0.00365958,
1028,0.000943429,1028,2.18224e-05,1028,0.00186484,1028,0.00327047,1028,0.00371931,
1026,0.000897046,1026,4.4783e-06,1026,0.00183876,1026,0.00325887,1026,0.00373067,
1024,0.000877462,1024,1.84312e-05,1024,0.00182719,1024,0.0032843,1024,0.00367409,
1022,0.000905606,1022,4.92379e-05,1022,0.00191655,1022,0.00335279,1022,0.00380751,
1020,0.000946619,1020,8.70373e-05,1020,0.00192921,1020,0.00342978,1020,0.00390268,
1018,0.000935776,1018,8.45777e-05,1018,0.0018847,1018,0.00334364,1018,0.00383203,
1016,0.000940186,1016,4.1782e-05,1016,0.00195456,1016,0.00335178,1016,0.00392347,
1014,0.000951315,1014,3.72515e-05,1014,0.00192916,1014,0.00340588,1014,0.00401206,
1012,0.000954584,1012,8.17038e-05,1012,0.00191049,1012,0.00343912,1012,0.0040473,
1010,0.000916449,1010,8.90828e-05,1010,0.00187271,1010,0.00343612,1010,0.00408002,
1008,0.000927137,1008,9.16719e-05,1008,0.00191813,1008,0.00350235,1008,0.0041684,
1006,0.000938344,1006,9.41575e-05,1006,0.0019282,1006,0.00359928,1006,0.00431076,
1004,0.000984912,1004,0.000126394,1004,0.00196431,1004,0.00355757,1004,0.00445418,
1002,0.000904958,1002,0.00015783,1002,0.00192034,1002,0.00357286,1002,0.00445756,
1000,0.000926203,1000,0.000173937,1000,0.00199937,1000,0.00366208,1000,0.00464566,
998,0.000919925,998,0.000192557,998,0.00197721,998,0.00364759,998,0.00482066,
996,0.000911469,996,0.00018906,996,0.00197157,996,0.00365775,996,0.00494396,
994,0.000918032,994,0.000188361,994,0.00199071,994,0.00376069,994,0.00510323,
992,0.000914711,992,0.000142448,992,0.0020119,992,0.00379534,992,0.00520068,
990,0.000854637,990,0.000150061,990,0.00195422,990,0.0037684,990,0.00521034,
988,0.000940264,988,0.000211747,988,0.00202439,988,0.00379485,988,0.00539139,
986,0.000953909,986,0.000198643,986,0.00206681,986,0.00391031,986,0.00549372,
984,0.000908019,984,0.000214855,984,0.00208395,984,0.00397854,984,0.0056571,
982,0.000966673,982,0.000238941,982,0.00216482,982,0.00403495,982,0.00574724,
980,0.000911339,980,0.000230317,980,0.00215894,980,0.00407991,980,0.00578161,
978,0.000920392,978,0.000287093,978,0.00220044,978,0.00418345,978,0.00597126,
976,0.0009454,976,0.000295071,976,0.00220299,976,0.00428184,976,0.00607596,
974,0.00090392,974,0.000271318,974,0.00222201,974,0.00438036,974,0.00622055,
972,0.000818405,972,0.000212291,972,0.00214068,972,0.00435081,972,0.00625458,
970,0.000772217,970,0.000166116,970,0.00211922,970,0.00435845,970,0.00629316,
968,0.000808083,968,0.000179945,968,0.00213587,968,0.00444456,968,0.00636849,
966,0.00078342,966,0.000167877,966,0.0021694,966,0.00447076,966,0.00633744,
964,0.000806605,964,0.000198202,964,0.00219901,964,0.00457322,964,0.00645035,
962,0.000821932,962,0.00028085,962,0.00227933,962,0.00466696,962,0.00649775,
960,0.000916138,960,0.000433055,960,0.00251362,960,0.00489335,960,0.00663822,
958,0.000918992,958,0.000496647,958,0.00260608,958,0.0049504,958,0.00671827,
956,0.000996276,956,0.000560923,956,0.00267255,956,0.00507364,956,0.00673425,
954,0.000992307,954,0.000584277,954,0.00272024,954,0.0051546,954,0.0067627,
952,0.000932248,952,0.000483353,952,0.00260848,952,0.00511999,952,0.00667087,
950,0.000814904,950,0.000448006,950,0.00256272,950,0.00515106,950,0.00659275,
948,0.000855026,948,0.000517069,948,0.00261277,948,0.00528378,948,0.00662334,
946,0.000834096,946,0.00050875,946,0.00259238,946,0.00531177,946,0.00660329,
944,0.000870563,944,0.000562193,944,0.0026738,944,0.00542902,944,0.00665121,
942,0.000777508,942,0.000462181,942,0.00258405,942,0.00541248,942,0.00657882,
940,0.000816771,940,0.000480787,940,0.00265202,940,0.00550177,940,0.00658905,
938,0.000830361,938,0.000540939,938,0.0027155,938,0.00561323,938,0.00663199,
936,0.000814281,936,0.000556154,936,0.00276564,936,0.00567784,936,0.00668062,
934,0.000777145,934,0.000529354,934,0.00277231,934,0.00571886,934,0.0066485,
932,0.000784094,932,0.000576345,932,0.00287494,932,0.00586771,932,0.00676073,
930,0.000762519,930,0.000569295,930,0.00290397,930,0.00594024,930,0.00678263,
928,0.000835704,928,0.000622486,928,0.00299941,928,0.00605102,928,0.00690212,
926,0.000737859,926,0.000649473,926,0.00302266,926,0.00608208,926,0.0069073,
924,0.000797709,924,0.000695647,924,0.00315312,924,0.006232,924,0.00703609,
922,0.000809535,922,0.000702207,922,0.00326427,922,0.00630467,922,0.00708016,
920,0.000760341,920,0.000688776,920,0.00329123,920,0.00637766,920,0.00709534,
918,0.000763012,918,0.000703555,918,0.00335932,918,0.00645188,918,0.00712637,
916,0.000801548,916,0.000801703,916,0.0035126,916,0.00662708,916,0.00727201,
914,0.000726165,914,0.000738948,914,0.00347756,914,0.00665949,914,0.00730128,
912,0.000712941,912,0.000743849,912,0.00353426,912,0.00672776,912,0.00738738,
910,0.000697228,910,0.000798021,910,0.00362475,910,0.00690493,910,0.00747641,
908,0.000771284,908,0.00084294,908,0.0037908,908,0.00700699,908,0.00764601,
906,0.000740244,906,0.000851291,906,0.00384742,906,0.00711289,906,0.00776806,
904,0.000735188,904,0.000900211,904,0.00400114,904,0.00725174,904,0.00788986,
902,0.000724609,902,0.000917409,902,0.003984,902,0.00735331,902,0.00806306,
900,0.000819105,900,0.000967011,900,0.00417708,900,0.00756493,900,0.00827708,
898,-0.00084234,898,-0.000533544,898,0.00670373,898,0.00801773,898,0.00976492,
896,0.000749527,896,0.00185231,896,0.00402677,896,0.00573604,896,0.00904905,
894,0.00203279,894,0.00246644,894,0.00722827,894,0.00897447,894,0.0111225,
892,-0.000418116,892,-0.000278082,892,0.00491652,892,0.00828861,892,0.0099893,
890,0.00129026,890,0.00328341,890,0.00709476,890,0.0107842,890,0.0125649,
888,0.00198884,888,0.00238434,888,0.00661354,888,0.00963291,888,0.0101187,
886,0.00203333,886,0.00228375,886,0.00671177,886,0.00902535,886,0.00970284,
884,0.000413699,884,0.00102905,884,0.00540331,884,0.0109591,884,0.00985118,
882,0.00186965,882,0.00292219,882,0.00754436,882,0.0114365,882,0.0116621,
880,0.00186764,880,0.00358526,880,0.00578418,880,0.0106963,880,0.0113955,
878,0.00226457,878,0.00250974,878,0.00581136,878,0.0108768,878,0.0109547,
876,0.00137997,876,0.00200935,876,0.00745228,876,0.0107306,876,0.0113125,
874,0.00118746,874,0.00262306,874,0.00562736,874,0.010608,874,0.0114405,
872,0.000107621,872,0.00192804,872,0.0060935,872,0.0108615,872,0.0122185,
870,0.000871497,870,0.0015508,870,0.00669608,870,0.010505,870,0.0115259,
868,0.00112034,868,0.00312076,868,0.00734586,868,0.0116185,868,0.0128973,
866,0.00178215,866,0.00234991,866,0.00776026,866,0.0119784,866,0.0121314,
864,0.00124768,864,0.00299404,864,0.00783817,864,0.0124049,864,0.0128949,
862,0.00194788,862,0.00319792,862,0.00837142,862,0.0127963,862,0.0142452,
860,0.00155714,860,0.00256733,860,0.00799969,860,0.0126435,860,0.0135557,
858,0.00198442,858,0.00315847,858,0.00857857,858,0.0134498,858,0.0145722,
856,0.00156371,856,0.00315951,856,0.0083754,856,0.013179,856,0.0146214,
854,0.00168456,854,0.00262801,854,0.00847509,854,0.0133433,854,0.0150132,
852,0.00150414,852,0.00285243,852,0.00899926,852,0.0143002,852,0.0153688,
850,0.00169493,850,0.00329118,850,0.00889301,850,0.0141673,850,0.0159253,
848,0.0017907,848,0.00307702,848,0.00942517,848,0.0145462,848,0.0161434,
846,0.00169482,846,0.00301636,846,0.0093021,846,0.0149346,846,0.0163789,
844,0.00193675,844,0.00319085,844,0.00974906,844,0.015573,844,0.0172289,
842,0.00203726,842,0.00333727,842,0.0100103,842,0.0154469,842,0.0177326,
840,0.00180195,840,0.00337653,840,0.0101736,840,0.0158597,840,0.017855,
838,0.00197144,838,0.00359001,838,0.0104722,838,0.0163784,838,0.0185665,
836,0.0020957,836,0.00378761,836,0.0107825,836,0.0168274,836,0.0190701,
834,0.00226577,834,0.00362123,834,0.0112207,834,0.0174729,834,0.019497,
832,0.00201128,832,0.00367057,832,0.0110539,832,0.0178114,832,0.0200241,
830,0.00205658,830,0.00383041,830,0.0114539,830,0.0182625,830,0.020746,
828,0.00194791,828,0.00383916,828,0.0116549,828,0.0187387,828,0.0212719,
826,0.00186109,826,0.00367075,826,0.0117676,826,0.0189504,826,0.0216634,
824,0.00200194,824,0.00389584,824,0.0122561,824,0.0195869,824,0.0224524,
822,0.00214942,822,0.00416641,822,0.0125593,822,0.0201507,822,0.0233312,
820,0.00206642,820,0.00405263,820,0.0128471,820,0.020544,820,0.0238184,
818,0.0019412,818,0.00410343,818,0.0131055,818,0.0210993,818,0.0244198,
816,0.00207682,816,0.0042339,816,0.0134076,816,0.0216384,816,0.0254201,
814,0.00212629,814,0.0044301,814,0.0136843,814,0.0225553,814,0.026214,
812,0.00208239,812,0.00427152,812,0.0139551,812,0.0229572,812,0.0270506,
810,0.00191556,810,0.00440416,810,0.014248,810,0.0234721,810,0.0276849,
808,0.00219268,808,0.00457568,808,0.0147202,808,0.0243365,808,0.0287817,
806,0.00190602,806,0.00451198,806,0.0149503,806,0.0249765,806,0.0296518,
804,0.00201801,804,0.00466675,804,0.0153116,804,0.0255539,804,0.030557,
802,0.00229749,802,0.0048326,802,0.0159671,802,0.0265319,802,0.0319843,
800,0.00222648,800,0.00498667,800,0.0162638,800,0.0271442,800,0.0329192,
798,0.00217026,798,0.00494341,798,0.0165254,798,0.0278217,798,0.034037,
796,0.00220122,796,0.00505022,796,0.0171415,796,0.0286963,796,0.0351901,
794,0.00212093,794,0.00509011,794,0.0173787,794,0.0294435,794,0.0366245,
792,0.00213241,792,0.00514566,792,0.0176701,792,0.0304749,792,0.0378808,
790,0.00213894,790,0.00516738,790,0.018246,790,0.0312652,790,0.03936572,
788,0.00212726,788,0.00524542,788,0.0185629,788,0.0322121,788,0.0409458,
786,0.00213332,786,0.00538779,786,0.0189829,786,0.0332651,786,0.042536,
784,0.00211474,784,0.0055601,784,0.0196649,784,0.034413,784,0.0442848,
782,0.00213386,782,0.00547477,782,0.0199454,782,0.0355218,782,0.0461722,
780,0.00212203,780,0.00562416,780,0.0206329,780,0.0366095,780,0.0481146,
778,0.00209971,778,0.00566937,778,0.0211366,778,0.0378877,778,0.0502018,
776,0.00216344,776,0.00580312,776,0.0215776,776,0.0390391,776,0.0523718,
774,0.00203557,774,0.00586157,774,0.02207263,774,0.0402906,774,0.0546735,
772,0.00210421,772,0.0058829,772,0.0226654,772,0.0416759,772,0.0571094,
770,0.00195589,770,0.00597013,770,0.0231412,770,0.0430814,770,0.0595966,
768,0.00203164,768,0.0060961,768,0.0238089,768,0.0446688,768,0.0625294,
766,0.0021783,766,0.00625563,766,0.0245185,766,0.0462691,766,0.0651628,
764,0.00216289,764,0.006294,764,0.0250489,764,0.0478315,764,0.0680098,
762,0.00216596,762,0.0062789,762,0.0255839,762,0.049602,762,0.0708952,
760,0.00217811,760,0.0064152,760,0.0263144,760,0.0513318,760,0.07384976,
758,0.00210062,758,0.00636542,758,0.0268838,758,0.0531025,758,0.0766611,
756,0.00217741,756,0.00655838,756,0.0276531,756,0.0550811,756,0.0798395,
754,0.00206127,754,0.00654884,754,0.028395,754,0.0570236,754,0.0826549,
752,0.00205003,752,0.00657593,752,0.0291093,752,0.0590847,752,0.0856855,
750,0.00203253,750,0.00653317,750,0.0297819,750,0.0612654,750,0.0887314,
748,0.00208821,748,0.00675647,748,0.0306541,748,0.0636795,748,0.0917311,
746,0.00208764,746,0.00674984,746,0.0315599,746,0.0661535,746,0.0947606,
744,0.00211297,744,0.00679112,744,0.0323814,744,0.0686603,744,0.0976791,
742,0.00203112,742,0.00688495,742,0.0332272,742,0.0713806,742,0.100891,
740,0.00201794,740,0.00680477,740,0.0340162,740,0.0740529,740,0.103811,
738,0.00204626,738,0.0070211,738,0.035127,738,0.0769709,738,0.107083,
736,0.00196788,736,0.00692306,736,0.0360851,736,0.0799502,736,0.110205,
734,0.00197355,734,0.00699368,734,0.0372209,734,0.0834316,734,0.113515,
732,0.00199895,732,0.00710747,732,0.0383229,732,0.086705,732,0.116702,
730,0.00204111,730,0.00707298,730,0.0393878,730,0.0903137,730,0.120261,
728,0.00198897,728,0.00718089,728,0.0405649,728,0.0939741,728,0.123744,
726,0.00189156,726,0.007199,726,0.0417772,726,0.0977855,726,0.127244,
724,0.00195144,724,0.0073045,724,0.0430908,724,0.101902,724,0.131146,
722,0.0018775,722,0.00722524,722,0.0443356,722,0.106015,722,0.134887,
720,0.00192775,720,0.00725956,720,0.0457797,720,0.110443,720,0.139073,
718,0.00178805,718,0.00736047,718,0.0471097,718,0.115086,718,0.143463,
716,0.00189502,716,0.00743306,716,0.048604,716,0.119789,716,0.147896,
714,0.00176229,714,0.00737505,714,0.0500797,714,0.124763,714,0.152711,
712,0.00185082,712,0.00746342,712,0.0516999,712,0.130077,712,0.157674,
710,0.00173588,710,0.00747585,710,0.0532868,710,0.135365,710,0.162841,
708,0.0017285,708,0.00752381,708,0.0548179,708,0.140872,708,0.168249,
706,0.00167499,706,0.00747654,706,0.0565572,706,0.146647,706,0.173838,
704,0.00169555,704,0.00752205,704,0.0583096,704,0.152601,704,0.179659,
702,0.00168669,702,0.00768769,702,0.0601458,702,0.158828,702,0.185787,
700,0.00170982,700,0.00769386,700,0.0619648,700,0.165096,700,0.191929,
698,0.00167133,698,0.00773083,698,0.0638295,698,0.171613,698,0.198507,
696,0.00162069,696,0.00774717,696,0.0657627,696,0.178308,696,0.20512,
694,0.00153178,694,0.00769094,694,0.0676884,694,0.185196,694,0.211943,
692,0.00142814,692,0.00791725,692,0.0697562,692,0.192222,692,0.219075,
690,0.0016647,690,0.00800963,690,0.0718893,690,0.199426,690,0.22639,
688,0.00153378,688,0.00799785,688,0.0739339,688,0.206694,688,0.233698,
686,0.0015668,686,0.00814421,686,0.0761139,686,0.214182,686,0.241356,
684,0.00142266,684,0.00819398,684,0.0782781,684,0.221708,684,0.248926,
682,0.00151388,682,0.0083411,682,0.0804485,682,0.229529,682,0.25687,
680,0.0015024,680,0.00829827,680,0.0826626,680,0.237357,680,0.264856,
678,0.00160362,678,0.00854716,678,0.0851827,678,0.245486,678,0.273129,
676,0.00153877,676,0.00872423,676,0.087395,676,0.253506,676,0.281281,
674,0.00159229,674,0.00871517,674,0.0898115,674,0.261821,674,0.289886,
672,0.00154113,672,0.00883993,672,0.0922431,672,0.270157,672,0.298513,
670,0.00154272,670,0.00886059,670,0.0945348,670,0.278526,670,0.307208,
668,0.00151737,668,0.00899342,668,0.0970209,668,0.28711,668,0.316188,
666,0.00141467,666,0.00894242,666,0.0993424,666,0.295607,666,0.324992,
664,0.00142022,664,0.00891248,664,0.101854,664,0.304416,664,0.333783,
662,0.00134053,662,0.00895312,662,0.104198,662,0.313247,662,0.342885,
660,0.00113386,660,0.00884191,660,0.106587,660,0.321793,660,0.351833,
658,0.00119351,658,0.00895965,658,0.109219,658,0.330859,658,0.361261,
656,0.00112688,656,0.00906415,656,0.111604,656,0.339643,656,0.370444,
654,0.00117432,654,0.00916772,654,0.114212,654,0.348564,654,0.379819,
652,0.00109916,652,0.00923921,652,0.116796,652,0.357455,652,0.389056,
650,0.000988856,650,0.0092485,650,0.1193223,650,0.366361,650,0.398315,
648,0.0009674,648,0.00940073,648,0.121997,648,0.375326,648,0.407642,
646,0.0010183,646,0.00947472,646,0.124514,646,0.384318,646,0.416861,
644,0.00105772,644,0.00977567,644,0.127127,644,0.39329,644,0.426157,
642,0.00105512,642,0.00990772,642,0.129748,642,0.402279,642,0.435386,
640,0.00100992,640,0.0100302,640,0.132342,640,0.411227,640,0.444556,
638,0.00105938,638,0.010237,638,0.134992,638,0.42021,638,0.45379,
636,0.0010415,636,0.0104129,636,0.137632,636,0.429142,636,0.462956,
634,0.00103032,634,0.0106333,634,0.140408,634,0.438115,634,0.472039,
632,0.00100536,632,0.0108965,632,0.143016,632,0.447047,632,0.481191,
630,0.0010183,630,0.0110502,630,0.145679,630,0.455917,630,0.490145,
628,0.00101934,628,0.0112162,628,0.148198,628,0.464705,628,0.499156,
626,0.00100022,626,0.0114689,626,0.150902,626,0.473493,626,0.508047,
624,0.00108665,624,0.0118076,624,0.153591,624,0.482264,624,0.516992,
622,0.00113127,622,0.0120758,622,0.156091,622,0.490883,622,0.525731,
620,0.00105829,620,0.0122848,620,0.158658,620,0.499545,620,0.534464,
618,0.00117082,618,0.0125719,618,0.161277,618,0.508239,618,0.543275,
616,0.00117547,616,0.0128927,616,0.163859,616,0.516606,616,0.55188,
614,0.00124013,614,0.0132948,614,0.166578,614,0.525256,614,0.560527,
612,0.00124493,612,0.0134603,612,0.168952,612,0.533485,612,0.569003,
610,0.00127141,610,0.0138139,610,0.171443,610,0.541591,610,0.577304,
608,0.00134572,608,0.0142177,608,0.173926,608,0.549694,608,0.585614,
606,0.00142952,606,0.0145134,606,0.176259,606,0.557496,606,0.593677,
604,0.00151178,604,0.014806,604,0.178637,604,0.56512,604,0.601586,
602,0.00179416,602,0.0152946,602,0.180923,602,0.572679,602,0.609521,
600,0.00184893,600,0.0155625,600,0.183156,600,0.579776,600,0.616929,
598,0.00205193,598,0.0158886,598,0.185308,598,0.586915,598,0.624341,
596,0.00224961,596,0.0163585,596,0.187527,596,0.593683,596,0.63147,
594,0.00234134,594,0.0168417,594,0.18953,594,0.600311,594,0.638243,
592,0.00249432,592,0.0171875,592,0.191537,592,0.606567,592,0.644919,
590,0.00277018,590,0.0176229,590,0.193372,590,0.612538,590,0.651124,
588,0.00315336,588,0.0180903,588,0.195251,588,0.618269,588,0.656999,
586,0.00357474,586,0.0186238,586,0.197001,586,0.623659,586,0.662521,
584,0.00399711,584,0.0190349,584,0.198656,584,0.628514,584,0.667477,
582,0.00459527,582,0.0195753,582,0.200203,582,0.633233,582,0.672197,
580,0.00534843,580,0.0201569,580,0.201741,580,0.637642,580,0.676509,
578,0.00606591,578,0.0206253,578,0.203026,578,0.641521,578,0.680373,
576,0.00711295,576,0.0213786,576,0.204413,576,0.645139,576,0.68384,
574,0.00838612,574,0.0220599,574,0.205572,574,0.648299,574,0.686911,
572,0.00992462,572,0.0226993,572,0.206816,572,0.651116,572,0.689524,
570,0.0115719,570,0.0236367,570,0.207986,570,0.653536,570,0.691677,
568,0.0138684,568,0.0244995,568,0.208917,568,0.655623,568,0.693503,
566,0.0165219,566,0.025474,566,0.209857,566,0.657379,566,0.69486,
564,0.0196377,564,0.026552,564,0.210711,564,0.65864,564,0.695835,
562,0.0233873,562,0.0277418,562,0.211591,562,0.659564,562,0.696356,
560,0.0279219,560,0.0290962,560,0.212427,560,0.660218,560,0.696671,
558,0.0333241,558,0.0304204,558,0.213132,558,0.660429,558,0.696468,
556,0.0396498,556,0.032032,556,0.213796,556,0.660411,556,0.696186,
554,0.0471399,554,0.0337084,554,0.214455,554,0.659977,554,0.695381,
552,0.0559865,552,0.0356487,552,0.215153,552,0.659226,552,0.694333,
550,0.0664649,550,0.0376687,550,0.215701,550,0.658173,550,0.692952,
548,0.0783968,548,0.0400683,548,0.216379,548,0.656861,548,0.691195,
546,0.092112,546,0.0426181,546,0.216904,546,0.655265,546,0.689301,
544,0.107874,544,0.0455401,544,0.217521,544,0.653367,544,0.687025,
542,0.125405,542,0.0487117,542,0.218135,542,0.65127,542,0.684508,
540,0.144985,540,0.0522535,540,0.218863,540,0.648909,540,0.681709,
538,0.166253,538,0.0560261,538,0.219536,538,0.6463,538,0.678535,
536,0.189382,536,0.0602446,536,0.220327,536,0.643441,536,0.675155,
534,0.214371,534,0.0648044,534,0.221069,534,0.640202,534,0.671207,
532,0.240584,532,0.0696894,532,0.221917,532,0.636838,532,0.667176,
530,0.267888,530,0.0748114,530,0.222828,530,0.633099,530,0.662679,
528,0.296213,528,0.0803217,528,0.223765,528,0.6291,528,0.657898,
526,0.325263,526,0.0861509,526,0.224771,526,0.624914,526,0.652861,
524,0.354411,524,0.092324,524,0.225984,524,0.62058,524,0.647565,
522,0.383632,522,0.0987564,522,0.227178,522,0.615903,522,0.641894,
520,0.412424,520,0.105187,520,0.22834,520,0.610964,520,0.635905,
518,0.440839,518,0.11189,518,0.229579,518,0.605864,518,0.629749,
516,0.468781,516,0.118786,516,0.230903,516,0.600555,516,0.623286,
514,0.496296,514,0.125671,514,0.232183,514,0.595042,514,0.616622,
512,0.5231,512,0.132628,512,0.233529,512,0.589216,512,0.609713,
510,0.549374,510,0.139605,510,0.234729,510,0.583151,510,0.602377,
508,0.575795,508,0.14694,508,0.236215,508,0.576975,508,0.594994,
506,0.601256,506,0.154031,506,0.237468,506,0.570578,506,0.587429,
504,0.62675,504,0.161186,504,0.238794,504,0.564005,504,0.579639,
502,0.651856,502,0.168605,502,0.240153,502,0.557225,502,0.57162,
500,0.676433,500,0.175791,500,0.241434,500,0.550429,500,0.563506,
498,0.70063,498,0.1831,498,0.242744,498,0.543414,498,0.555096,
496,0.724087,496,0.190564,496,0.244031,496,0.536259,496,0.546771,
494,0.746778,494,0.197871,494,0.245306,494,0.528945,494,0.538224,
492,0.768533,492,0.205184,492,0.246636,492,0.521631,492,0.529659,
490,0.789006,490,0.212752,490,0.248022,490,0.514294,490,0.521045,
488,0.808331,488,0.220181,488,0.249423,488,0.506828,488,0.512283,
486,0.825867,486,0.22743,486,0.250749,486,0.499221,486,0.503528,
484,0.841756,484,0.234812,484,0.252217,484,0.491809,484,0.494754,
482,0.855609,482,0.241925,482,0.253678,482,0.484274,482,0.485893,
480,0.867673,480,0.248871,480,0.255276,480,0.476839,480,0.477058,
478,0.877854,478,0.255878,478,0.256813,478,0.469384,478,0.468241,
476,0.886166,476,0.262505,476,0.25854,476,0.462121,476,0.459552,
474,0.892563,474,0.268766,474,0.260175,474,0.454784,474,0.450984,
472,0.897337,472,0.275028,472,0.261801,472,0.447784,472,0.442596,
470,0.900612,470,0.281005,470,0.263611,470,0.440877,470,0.434284,
468,0.902446,468,0.286834,468,0.265447,468,0.434066,468,0.426025,
466,0.902823,466,0.292324,466,0.267243,466,0.427519,466,0.418128,
464,0.901965,464,0.297658,464,0.269143,464,0.421143,464,0.410318,
462,0.899856,462,0.302737,462,0.271046,462,0.41502,462,0.402777,
460,0.89651,460,0.307619,460,0.272914,460,0.409248,460,0.395613,
458,0.892104,458,0.312276,458,0.274904,458,0.403689,458,0.388712,
456,0.886384,456,0.316815,456,0.27686,456,0.398413,456,0.382147,
454,0.879665,454,0.321347,454,0.279011,454,0.393625,454,0.376053,
452,0.87176,452,0.325578,452,0.281151,452,0.388974,452,0.370373,
450,0.863026,450,0.329571,450,0.28357,450,0.384724,450,0.365136,
448,0.853106,448,0.333466,448,0.285779,448,0.380809,448,0.360215,
446,0.842152,446,0.336914,446,0.288248,446,0.377278,446,0.35578,
444,0.83057,444,0.340231,444,0.290699,444,0.374213,444,0.351861,
442,0.818079,442,0.343457,442,0.293599,442,0.371538,442,0.348509,
440,0.805169,440,0.346386,440,0.296336,440,0.369384,440,0.345713,
438,0.791895,438,0.349196,438,0.299178,438,0.367788,438,0.343455,
436,0.777962,436,0.351904,436,0.302258,436,0.366565,436,0.341702,
434,0.763868,434,0.354318,434,0.305294,434,0.365706,434,0.34053,
432,0.74979,432,0.356826,432,0.308713,432,0.365599,432,0.340274,
430,0.73545,430,0.358966,430,0.311937,430,0.365566,430,0.340251,
428,0.721168,428,0.361118,428,0.31533,428,0.366113,428,0.340952,
426,0.706986,426,0.363168,426,0.318663,426,0.36715,426,0.342386,
424,0.692607,424,0.365056,424,0.322338,424,0.368393,424,0.344349,
422,0.67849,422,0.36705,422,0.325984,422,0.370193,422,0.347163,
420,0.66482,420,0.369018,420,0.329675,420,0.37241,420,0.35073,
418,0.651124,418,0.371005,418,0.333294,418,0.375257,418,0.35519,
416,0.637972,416,0.37309,416,0.337064,416,0.378339,416,0.360477,
414,0.625319,414,0.375451,414,0.34107,414,0.382171,414,0.366646,
412,0.612738,412,0.377787,412,0.344989,412,0.386138,412,0.373521,
410,0.601001,410,0.380357,410,0.349188,410,0.390764,410,0.381228,
408,0.589641,408,0.383184,408,0.353459,408,0.395703,408,0.389663,
406,0.579134,406,0.386314,406,0.357932,406,0.401221,406,0.39887,
404,0.56924,404,0.389395,404,0.362447,404,0.407063,404,0.408733,
402,0.560389,402,0.392982,402,0.367372,402,0.413684,402,0.419482,
400,0.551909,400,0.396173,400,0.372038,400,0.420127,400,0.430245,
398,0.544823,398,0.399731,398,0.377224,398,0.427328,398,0.441838,
396,0.53834,396,0.403091,396,0.382315,396,0.434646,396,0.453511,
394,0.53312,394,0.40666,394,0.387737,394,0.442386,394,0.46583,
392,0.529093,392,0.410356,392,0.393445,392,0.450542,392,0.478612,
390,0.52619,390,0.414309,390,0.399421,390,0.459093,390,0.491828,
388,0.525001,388,0.418709,388,0.405914,388,0.468068,388,0.505782,
386,0.525301,386,0.423634,386,0.41272,386,0.477303,386,0.520271,
384,0.527465,384,0.429019,384,0.42018,384,0.487063,384,0.535379,
382,0.531197,382,0.435132,382,0.42805,382,0.497064,382,0.550691,
380,0.537222,380,0.441977,380,0.43699,380,0.507608,380,0.566765,
378,0.544936,378,0.449339,378,0.446238,378,0.517908,378,0.582792,
376,0.554707,376,0.457827,376,0.456609,376,0.528707,376,0.599147,
374,0.565926,374,0.466874,374,0.467936,374,0.539196,374,0.61526,
372,0.578311,372,0.476599,372,0.480081,372,0.549342,372,0.631233,
370,0.591053,370,0.487003,370,0.492967,370,0.559206,370,0.646731,
368,0.604015,368,0.497698,368,0.506512,368,0.568577,368,0.66249,
366,0.616087,366,0.50822,366,0.520146,366,0.577739,366,0.678729,
364,0.62656,364,0.517392,364,0.532939,364,0.58663,364,0.696118,
362,0.634853,362,0.524849,362,0.544401,362,0.596029,362,0.716195,
360,0.641285,360,0.530278,360,0.554381,360,0.60702,360,0.741222,
358,0.645223,358,0.533082,358,0.562333,358,0.620027,358,0.771517,
356,0.646811,356,0.533396,356,0.568542,356,0.634234,356,0.805947,
354,0.646491,354,0.532005,354,0.573207,354,0.648319,354,0.841559,
352,0.644482,352,0.529631,352,0.576123,352,0.658718,352,0.870993,
350,0.640317,350,0.526246,350,0.576283,350,0.661764,350,0.888112,
348,0.634472,348,0.522202,348,0.573813,348,0.656181,348,0.889495,
346,0.626713,346,0.517341,346,0.56893,346,0.643239,346,0.877462,
344,0.61665,344,0.510986,344,0.56186,344,0.627074,344,0.858673,
342,0.604878,342,0.503246,342,0.554061,342,0.613163,342,0.842958,
340,0.590345,340,0.492926,340,0.54523,340,0.604851,340,0.835028,
338,0.573499,338,0.48045,338,0.536263,338,0.603658,338,0.837641,
336,0.554955,336,0.466533,336,0.52714,336,0.608233,336,0.849256,
334,0.534962,334,0.45198,334,0.518437,334,0.616838,334,0.864777,
332,0.514024,332,0.437425,332,0.509453,332,0.624149,332,0.876016,
330,0.492637,330,0.423376,330,0.499399,330,0.625822,330,0.876404,
328,0.470898,328,0.409269,328,0.487129,328,0.61893,328,0.86182,
326,0.448671,326,0.395045,326,0.472459,326,0.605238,326,0.835558,
324,0.426976,324,0.380809,324,0.45721,324,0.589528,324,0.806823,
322,0.405129,322,0.366087,322,0.441743,322,0.575869,322,0.782159,
320,0.382977,320,0.351158,320,0.427046,320,0.565384,320,0.764454,
318,0.362169,318,0.337528,318,0.414214,318,0.558288,318,0.752382,
316,0.341576,316,0.324525,316,0.401598,316,0.549507,316,0.739806,
314,0.322219,314,0.312651,314,0.389183,314,0.537142,314,0.722073,
312,0.30375,312,0.301551,312,0.376028,312,0.519333,312,0.696261,
310,0.286363,310,0.291388,310,0.362369,310,0.497546,310,0.664784,
308,0.270655,308,0.281742,308,0.34928,308,0.474771,308,0.632714,
306,0.255943,306,0.272977,306,0.336736,306,0.453873,306,0.603948,
304,0.242546,304,0.26533,304,0.326091,304,0.435977,304,0.58072,
302,0.230733,302,0.258072,302,0.316725,302,0.42031,302,0.561425,
300,0.220428,300,0.252541,300,0.308353,300,0.405274,300,0.542402,

t=3hrs FeCl3 0uM,
t=3hrs FeCl3 0uM
Collection Time: 2024-09-11 2:06:48 PM
Operator Name  :
Scan Version 6.4.0.1610
Parameter List :
Instrument  Cary 7000
Instrument Version  3.07
Method Log     :
Method Name    :
Date/Time stamp: 2024-09-11 1:55:44 PM
Method Modifications:
ConcentrationReportSelected Changed: 2024-09-11 1:55:44 PM, Old:Choice 0, New:Choice 1
ConcentrationReportSelected Changed: 2024-09-11 1:55:44 PM, Old:ON, New:Choice 0
MCAReportSelected Changed: 2024-09-11 1:55:44 PM, Old:Choice 0, New:Choice 1
MCAReportSelected Changed: 2024-09-11 1:55:44 PM, Old:ON, New:Choice 0
X Start nm Changed: 2024-09-11 1:57:39 PM, Old:800.000, New:1400.000
X Stop nm Changed: 2024-09-11 1:57:39 PM, Old:200.000, New:300.000
UVVIS Scan Rate nm Changed: 2024-09-11 1:57:39 PM, Old:  602.007, New:  600.000
NIR Scan Rate nm Changed: 2024-09-11 1:57:39 PM, Old:    0.004, New:   12.000
Common Interval nm Changed: 2024-09-11 1:57:39 PM, Old:    1.000, New:    0.667
Source changeover Changed: 2024-09-11 1:57:39 PM, Old:   350.00, New:   300.00
Detector changeover Changed: 2024-09-11 1:57:39 PM, Old:   800.00, New:   900.00
Grating changeover Changed: 2024-09-11 1:57:39 PM, Old:   800.00, New:   900.00
Baseline Correction Changed: 2024-09-11 1:57:39 PM, Old:0, New:2
Sipper Type Changed: 2024-09-11 1:57:39 PM, Old:Internal RSA, New:External sipper
End Method Modifications
<Current Wavelength> , 300.000
<SBW (nm)> , 2.00
<Energy> , 57.54
<Slit Height> , Full

t=3hrs FeCl3 5uM,
t=3hrs FeCl3 5uM
Collection Time: 2024-09-11 2:16:18 PM
Operator Name  :
Scan Version 6.4.0.1610
Parameter List :
Instrument  Cary 7000
Instrument Version  3.07
Method Log     :
Method Name    :
Date/Time stamp: 2024-09-11 1:55:44 PM
Method Modifications:
ConcentrationReportSelected Changed: 2024-09-11 1:55:44 PM, Old:Choice 0, New:Choice 1
ConcentrationReportSelected Changed: 2024-09-11 1:55:44 PM, Old:ON, New:Choice 0
MCAReportSelected Changed: 2024-09-11 1:55:44 PM, Old:Choice 0, New:Choice 1
MCAReportSelected Changed: 2024-09-11 1:55:44 PM, Old:ON, New:Choice 0
X Start nm Changed: 2024-09-11 1:57:39 PM, Old:800.000, New:1400.000
X Stop nm Changed: 2024-09-11 1:57:39 PM, Old:200.000, New:300.000
UVVIS Scan Rate nm Changed: 2024-09-11 1:57:39 PM, Old:  602.007, New:  600.000
NIR Scan Rate nm Changed: 2024-09-11 1:57:39 PM, Old:    0.004, New:   12.000
Common Interval nm Changed: 2024-09-11 1:57:39 PM, Old:    1.000, New:    0.667
Source changeover Changed: 2024-09-11 1:57:39 PM, Old:   350.00, New:   300.00
Detector changeover Changed: 2024-09-11 1:57:39 PM, Old:   800.00, New:   900.00
Grating changeover Changed: 2024-09-11 1:57:39 PM, Old:   800.00, New:   900.00
Baseline Correction Changed: 2024-09-11 1:57:39 PM, Old:0, New:2
Sipper Type Changed: 2024-09-11 1:57:39 PM, Old:Internal RSA, New:External sipper
End Method Modifications
<Current Wavelength> , 300.000
<SBW (nm)> , 2.00
<Energy> , 60.26
<Slit Height> , Full

t=3hrs FeCl3 20uM,
t=3hrs FeCl3 20uM
Collection Time: 2024-09-11 2:21:15 PM
Operator Name  :
Scan Version 6.4.0.1610
Parameter List :
Instrument  Cary 7000
Instrument Version  3.07
Method Log     :
Method Name    :
Date/Time stamp: 2024-09-11 1:55:44 PM
Method Modifications:
ConcentrationReportSelected Changed: 2024-09-11 1:55:44 PM, Old:Choice 0, New:Choice 1
ConcentrationReportSelected Changed: 2024-09-11 1:55:44 PM, Old:ON, New:Choice 0
MCAReportSelected Changed: 2024-09-11 1:55:44 PM, Old:Choice 0, New:Choice 1
MCAReportSelected Changed: 2024-09-11 1:55:44 PM, Old:ON, New:Choice 0
X Start nm Changed: 2024-09-11 1:57:39 PM, Old:800.000, New:1400.000
X Stop nm Changed: 2024-09-11 1:57:39 PM, Old:200.000, New:300.000
UVVIS Scan Rate nm Changed: 2024-09-11 1:57:39 PM, Old:  602.007, New:  600.000
NIR Scan Rate nm Changed: 2024-09-11 1:57:39 PM, Old:    0.004, New:   12.000
Common Interval nm Changed: 2024-09-11 1:57:39 PM, Old:    1.000, New:    0.667
Source changeover Changed: 2024-09-11 1:57:39 PM, Old:   350.00, New:   300.00
Detector changeover Changed: 2024-09-11 1:57:39 PM, Old:   800.00, New:   900.00
Grating changeover Changed: 2024-09-11 1:57:39 PM, Old:   800.00, New:   900.00
Baseline Correction Changed: 2024-09-11 1:57:39 PM, Old:0, New:2
Sipper Type Changed: 2024-09-11 1:57:39 PM, Old:Internal RSA, New:External sipper
End Method Modifications
<Current Wavelength> , 300.000
<SBW (nm)> , 2.00
<Energy> , 66.07
<Slit Height> , Full

t=3hrs FeCl3 50uM,
t=3hrs FeCl3 50uM
Collection Time: 2024-09-11 2:26:09 PM
Operator Name  :
Scan Version 6.4.0.1610
Parameter List :
Instrument  Cary 7000
Instrument Version  3.07
Method Log     :
Method Name    :
Date/Time stamp: 2024-09-11 1:55:44 PM
Method Modifications:
ConcentrationReportSelected Changed: 2024-09-11 1:55:44 PM, Old:Choice 0, New:Choice 1
ConcentrationReportSelected Changed: 2024-09-11 1:55:44 PM, Old:ON, New:Choice 0
MCAReportSelected Changed: 2024-09-11 1:55:44 PM, Old:Choice 0, New:Choice 1
MCAReportSelected Changed: 2024-09-11 1:55:44 PM, Old:ON, New:Choice 0
X Start nm Changed: 2024-09-11 1:57:39 PM, Old:800.000, New:1400.000
X Stop nm Changed: 2024-09-11 1:57:39 PM, Old:200.000, New:300.000
UVVIS Scan Rate nm Changed: 2024-09-11 1:57:39 PM, Old:  602.007, New:  600.000
NIR Scan Rate nm Changed: 2024-09-11 1:57:39 PM, Old:    0.004, New:   12.000
Common Interval nm Changed: 2024-09-11 1:57:39 PM, Old:    1.000, New:    0.667
Source changeover Changed: 2024-09-11 1:57:39 PM, Old:   350.00, New:   300.00
Detector changeover Changed: 2024-09-11 1:57:39 PM, Old:   800.00, New:   900.00
Grating changeover Changed: 2024-09-11 1:57:39 PM, Old:   800.00, New:   900.00
Baseline Correction Changed: 2024-09-11 1:57:39 PM, Old:0, New:2
Sipper Type Changed: 2024-09-11 1:57:39 PM, Old:Internal RSA, New:External sipper
End Method Modifications
<Current Wavelength> , 298.667
<SBW (nm)> , 2.00
<Energy> , 72.44
<Slit Height> , Full

t=3hrs FeCl3 100uM,
t=3hrs FeCl3 100uM
Collection Time: 2024-09-11 2:31:18 PM
Operator Name  :
Scan Version 6.4.0.1610
Parameter List :
Instrument  Cary 7000
Instrument Version  3.07
Method Log     :
Method Name    :
Date/Time stamp: 2024-09-11 1:55:44 PM
Method Modifications:
ConcentrationReportSelected Changed: 2024-09-11 1:55:44 PM, Old:Choice 0, New:Choice 1
ConcentrationReportSelected Changed: 2024-09-11 1:55:44 PM, Old:ON, New:Choice 0
MCAReportSelected Changed: 2024-09-11 1:55:44 PM, Old:Choice 0, New:Choice 1
MCAReportSelected Changed: 2024-09-11 1:55:44 PM, Old:ON, New:Choice 0
X Start nm Changed: 2024-09-11 1:57:39 PM, Old:800.000, New:1400.000
X Stop nm Changed: 2024-09-11 1:57:39 PM, Old:200.000, New:300.000
UVVIS Scan Rate nm Changed: 2024-09-11 1:57:39 PM, Old:  602.007, New:  600.000
NIR Scan Rate nm Changed: 2024-09-11 1:57:39 PM, Old:    0.004, New:   12.000
Common Interval nm Changed: 2024-09-11 1:57:39 PM, Old:    1.000, New:    0.667
Source changeover Changed: 2024-09-11 1:57:39 PM, Old:   350.00, New:   300.00
Detector changeover Changed: 2024-09-11 1:57:39 PM, Old:   800.00, New:   900.00
Grating changeover Changed: 2024-09-11 1:57:39 PM, Old:   800.00, New:   900.00
Baseline Correction Changed: 2024-09-11 1:57:39 PM, Old:0, New:2
Sipper Type Changed: 2024-09-11 1:57:39 PM, Old:Internal RSA, New:External sipper
End Method Modifications
<Current Wavelength> , 300.000
<SBW (nm)> , 2.00
<Energy> , 72.44
<Slit Height> , Full