File: UV-Vis data/2024_09/2024_09_03_non-imine FeCl3 doping.csv
non-imine undoped,,non-imine 1 min FeCl3 doping,,non-imine 10 min FeCl3,,non-imine 30 min FeCl3 doping,,non-imine polymer 1 hour FeCl3,,
Wavelength (nm),Abs,Wavelength (nm),Abs,Wavelength (nm),Abs,Wavelength (nm),Abs,Wavelength (nm),Abs,
1200,-0.0142374,1200,-0.014806,1200,-0.0201129,1200,-0.0118565,1200,-0.0140559,
1198,-0.0140931,1198,-0.014518,1198,-0.0199088,1198,-0.0118383,1198,-0.0140041,
1196,-0.0141835,1196,-0.0146426,1196,-0.0200887,1196,-0.0119615,1196,-0.014051,
1194,-0.0141954,1194,-0.0147664,1194,-0.020141,1194,-0.0118503,1194,-0.0142565,
1192,-0.0143589,1192,-0.0146512,1192,-0.0201769,1192,-0.0118873,1192,-0.0141299,
1190,-0.0141407,1190,-0.0147154,1190,-0.0200271,1190,-0.0117368,1190,-0.0140078,
1188,-0.0143636,1188,-0.0147712,1188,-0.0202875,1188,-0.0119514,1188,-0.0140476,
1186,-0.0142877,1186,-0.0146621,1186,-0.0201821,1186,-0.0119186,1186,-0.0141811,
1184,-0.0144859,1184,-0.0149779,1184,-0.0203015,1184,-0.0119831,1184,-0.0144396,
1182,-0.0142647,1182,-0.0147439,1182,-0.0199348,1182,-0.0117648,1182,-0.0141387,
1180,-0.0142472,1180,-0.0146608,1180,-0.0201442,1180,-0.0118069,1180,-0.0142331,
1178,-0.0140465,1178,-0.0145448,1178,-0.0199078,1178,-0.0116249,1178,-0.0139605,
1176,-0.0142124,1176,-0.0144584,1176,-0.019993,1176,-0.0116381,1176,-0.0141748,
1174,-0.0140808,1174,-0.014544,1174,-0.0200061,1174,-0.011685,1174,-0.0142078,
1172,-0.0139609,1172,-0.0145434,1172,-0.0198715,1172,-0.01162,1172,-0.0140887,
1170,-0.0142798,1170,-0.01468,1170,-0.0203729,1170,-0.0117645,1170,-0.0142641,
1168,-0.0140567,1168,-0.0146157,1168,-0.0202303,1168,-0.0119362,1168,-0.0141761,
1166,-0.0140233,1166,-0.0146249,1166,-0.0199805,1166,-0.0115921,1166,-0.0142117,
1164,-0.0140311,1164,-0.0146356,1164,-0.0199254,1164,-0.0116459,1164,-0.0141202,
1162,-0.0140025,1162,-0.01466,1162,-0.0199162,1162,-0.0118398,1162,-0.0141596,
1160,-0.0140562,1160,-0.0145577,1160,-0.0199572,1160,-0.0116526,1160,-0.0141232,
1158,-0.014029,1158,-0.0146727,1158,-0.019815,1158,-0.0116554,1158,-0.0140676,
1156,-0.0138769,1156,-0.0144994,1156,-0.0198379,1156,-0.0115751,1156,-0.0142611,
1154,-0.0140714,1154,-0.0146481,1154,-0.0198782,1154,-0.0117506,1154,-0.0142464,
1152,-0.0139995,1152,-0.0144993,1152,-0.0197469,1152,-0.0115667,1152,-0.0141523,
1150,-0.013975,1150,-0.0146043,1150,-0.0201639,1150,-0.0117506,1150,-0.0142132,
1148,-0.0139684,1148,-0.014624,1148,-0.0198987,1148,-0.0117495,1148,-0.0141755,
1146,-0.0139838,1146,-0.0145082,1146,-0.0200355,1146,-0.0118216,1146,-0.0141858,
1144,-0.0142285,1144,-0.0146191,1144,-0.0202361,1144,-0.0118741,1144,-0.0142835,
1142,-0.0140621,1142,-0.0146271,1142,-0.0199675,1142,-0.011698,1142,-0.0141282,
1140,-0.0139999,1140,-0.0146494,1140,-0.020009,1140,-0.0114826,1140,-0.0141893,
1138,-0.0140966,1138,-0.0146312,1138,-0.0199008,1138,-0.0117101,1138,-0.0140714,
1136,-0.0140725,1136,-0.0144768,1136,-0.0198246,1136,-0.011619,1136,-0.0140421,
1134,-0.0138817,1134,-0.0145156,1134,-0.0195939,1134,-0.0113849,1134,-0.014007,
1132,-0.0142297,1132,-0.0147799,1132,-0.0199535,1132,-0.0115931,1132,-0.0142848,
1130,-0.0140778,1130,-0.0146402,1130,-0.0199772,1130,-0.0115027,1130,-0.0140805,
1128,-0.0139429,1128,-0.0144968,1128,-0.0197992,1128,-0.0114384,1128,-0.0140094,
1126,-0.0140719,1126,-0.0146274,1126,-0.0199258,1126,-0.0115135,1126,-0.0142812,
1124,-0.0139919,1124,-0.0144139,1124,-0.0197758,1124,-0.0114672,1124,-0.0140318,
1122,-0.0138785,1122,-0.014526,1122,-0.0197402,1122,-0.0113243,1122,-0.0139813,
1120,-0.0140487,1120,-0.0145682,1120,-0.0197557,1120,-0.0115299,1120,-0.0139276,
1118,-0.0140378,1118,-0.0145889,1118,-0.0197494,1118,-0.011576,1118,-0.0141231,
1116,-0.0140219,1116,-0.0146078,1116,-0.0198389,1116,-0.0114948,1116,-0.0140464,
1114,-0.013927,1114,-0.0146345,1114,-0.0197942,1114,-0.0114678,1114,-0.0141074,
1112,-0.0139292,1112,-0.0145418,1112,-0.019807,1112,-0.0114859,1112,-0.0140708,
1110,-0.0138581,1110,-0.0145295,1110,-0.019737,1110,-0.0113923,1110,-0.0141426,
1108,-0.0139257,1108,-0.0144814,1108,-0.0196186,1108,-0.0113618,1108,-0.0140307,
1106,-0.0141489,1106,-0.014615,1106,-0.0199115,1106,-0.0115196,1106,-0.0142983,
1104,-0.0140203,1104,-0.0146703,1104,-0.0198536,1104,-0.0116466,1104,-0.0141742,
1102,-0.0139665,1102,-0.0144201,1102,-0.0197793,1102,-0.0115348,1102,-0.0141454,
1100,-0.0139423,1100,-0.0144144,1100,-0.0196415,1100,-0.0113127,1100,-0.0139508,
1098,-0.0139727,1098,-0.0145388,1098,-0.0197308,1098,-0.0114561,1098,-0.0140828,
1096,-0.0139191,1096,-0.0145286,1096,-0.0195807,1096,-0.0114219,1096,-0.0139227,
1094,-0.0137511,1094,-0.0143626,1094,-0.019588,1094,-0.0112286,1094,-0.0139105,
1092,-0.0137442,1092,-0.0146808,1092,-0.0195458,1092,-0.0114145,1092,-0.0139617,
1090,-0.013915,1090,-0.0146021,1090,-0.0198207,1090,-0.0113069,1090,-0.0139932,
1088,-0.0140234,1088,-0.0146074,1088,-0.0198046,1088,-0.0114186,1088,-0.0141858,
1086,-0.0140193,1086,-0.0145539,1086,-0.0197274,1086,-0.01146,1086,-0.0140696,
1084,-0.0139041,1084,-0.014506,1084,-0.0197555,1084,-0.0113047,1084,-0.0139021,
1082,-0.0137637,1082,-0.0142311,1082,-0.0196072,1082,-0.0111195,1082,-0.0138857,
1080,-0.0138948,1080,-0.0143646,1080,-0.0196168,1080,-0.0111741,1080,-0.0138813,
1078,-0.0138382,1078,-0.014479,1078,-0.0194782,1078,-0.0112057,1078,-0.0138244,
1076,-0.0138521,1076,-0.0143572,1076,-0.0195128,1076,-0.011324,1076,-0.0138568,
1074,-0.0138085,1074,-0.0144925,1074,-0.0196514,1074,-0.011372,1074,-0.0140907,
1072,-0.0137578,1072,-0.0144586,1072,-0.0194641,1072,-0.0111931,1072,-0.0139245,
1070,-0.0136008,1070,-0.0143124,1070,-0.0194608,1070,-0.0111773,1070,-0.0137455,
1068,-0.0138086,1068,-0.0143886,1068,-0.0194173,1068,-0.0113112,1068,-0.0138998,
1066,-0.013683,1066,-0.0143796,1066,-0.0195005,1066,-0.0112614,1066,-0.013834,
1064,-0.0138109,1064,-0.0142659,1064,-0.0194844,1064,-0.0112064,1064,-0.0137361,
1062,-0.0137006,1062,-0.0143394,1062,-0.0195937,1062,-0.0112335,1062,-0.0138055,
1060,-0.01359,1060,-0.0141141,1060,-0.0193033,1060,-0.0111447,1060,-0.0136742,
1058,-0.0136499,1058,-0.014212,1058,-0.0194816,1058,-0.0110601,1058,-0.0135753,
1056,-0.0136473,1056,-0.0143372,1056,-0.0194252,1056,-0.0111465,1056,-0.0137802,
1054,-0.0136275,1054,-0.0142943,1054,-0.0193742,1054,-0.0111222,1054,-0.0136873,
1052,-0.0136377,1052,-0.0144065,1052,-0.0193435,1052,-0.0112574,1052,-0.0138071,
1050,-0.0137154,1050,-0.0142268,1050,-0.0193759,1050,-0.0111442,1050,-0.0136556,
1048,-0.0137284,1048,-0.0143197,1048,-0.019416,1048,-0.0112381,1048,-0.0136621,
1046,-0.0136432,1046,-0.0142014,1046,-0.019341,1046,-0.0110914,1046,-0.013636,
1044,-0.0136555,1044,-0.014302,1044,-0.0195646,1044,-0.0112468,1044,-0.0136723,
1042,-0.0136421,1042,-0.0143515,1042,-0.0192834,1042,-0.0111255,1042,-0.0136617,
1040,-0.0135388,1040,-0.0141751,1040,-0.0192189,1040,-0.0111378,1040,-0.0136484,
1038,-0.0135812,1038,-0.0142556,1038,-0.0194063,1038,-0.0111302,1038,-0.0136976,
1036,-0.0134766,1036,-0.0141971,1036,-0.019345,1036,-0.0109774,1036,-0.0136429,
1034,-0.0135958,1034,-0.0141446,1034,-0.0192866,1034,-0.0110949,1034,-0.0136035,
1032,-0.0135152,1032,-0.0140808,1032,-0.0192438,1032,-0.0109328,1032,-0.0136385,
1030,-0.013666,1030,-0.0141157,1030,-0.019403,1030,-0.0110449,1030,-0.0137346,
1028,-0.0132829,1028,-0.0140844,1028,-0.0190605,1028,-0.0108009,1028,-0.0135308,
1026,-0.0135175,1026,-0.014051,1026,-0.0190549,1026,-0.0109656,1026,-0.0135314,
1024,-0.0135995,1024,-0.0140905,1024,-0.0193518,1024,-0.0108866,1024,-0.0135814,
1022,-0.0135606,1022,-0.0140112,1022,-0.0192764,1022,-0.0110187,1022,-0.0137196,
1020,-0.0134693,1020,-0.0141331,1020,-0.0193528,1020,-0.0108953,1020,-0.0136506,
1018,-0.0135419,1018,-0.0139828,1018,-0.0191976,1018,-0.0109239,1018,-0.0135901,
1016,-0.0136214,1016,-0.0139566,1016,-0.019199,1016,-0.0109972,1016,-0.0135657,
1014,-0.013348,1014,-0.0139769,1014,-0.0191309,1014,-0.0108667,1014,-0.0135492,
1012,-0.0133844,1012,-0.0140577,1012,-0.0193296,1012,-0.011035,1012,-0.0137065,
1010,-0.0134337,1010,-0.0140858,1010,-0.0192017,1010,-0.0108604,1010,-0.0136143,
1008,-0.0132476,1008,-0.0139359,1008,-0.0191519,1008,-0.0109261,1008,-0.0136028,
1006,-0.0133745,1006,-0.0141363,1006,-0.0194451,1006,-0.0110506,1006,-0.0137441,
1004,-0.0135071,1004,-0.0140806,1004,-0.0191005,1004,-0.0110178,1004,-0.0137584,
1002,-0.013424,1002,-0.0139566,1002,-0.0191676,1002,-0.0108945,1002,-0.0134484,
1000,-0.0133998,1000,-0.0138525,1000,-0.0190432,1000,-0.0108413,1000,-0.0135524,
998,-0.0134583,998,-0.0139379,998,-0.0191915,998,-0.0111031,998,-0.0137094,
996,-0.0133607,996,-0.0140146,996,-0.0191049,996,-0.0109207,996,-0.0135475,
994,-0.0134072,994,-0.0139072,994,-0.0191096,994,-0.0108546,994,-0.0134364,
992,-0.0134921,992,-0.0141494,992,-0.0192843,992,-0.0110626,992,-0.0137883,
990,-0.013438,990,-0.0139699,990,-0.0192822,990,-0.0108184,990,-0.0135718,
988,-0.0134643,988,-0.0140935,988,-0.0191575,988,-0.0109039,988,-0.0136602,
986,-0.0132394,986,-0.0139044,986,-0.0190467,986,-0.0107639,986,-0.0133988,
984,-0.0134544,984,-0.0139587,984,-0.0190944,984,-0.0109846,984,-0.0135745,
982,-0.0137277,982,-0.0141055,982,-0.0192322,982,-0.0111954,982,-0.0137748,
980,-0.0135708,980,-0.0141232,980,-0.0194063,980,-0.0110376,980,-0.0137716,
978,-0.0133186,978,-0.0140187,978,-0.01929,978,-0.0110568,978,-0.0136657,
976,-0.0133315,976,-0.0137907,976,-0.0189793,976,-0.0110887,976,-0.0134165,
974,-0.013383,974,-0.0139152,974,-0.0192143,974,-0.0111935,974,-0.0137588,
972,-0.0133305,972,-0.013892,972,-0.0189985,972,-0.011009,972,-0.0136795,
970,-0.0132423,970,-0.013978,970,-0.0190307,970,-0.0110175,970,-0.0135796,
968,-0.0134566,968,-0.0141041,968,-0.0190874,968,-0.0109894,968,-0.01369,
966,-0.0133027,966,-0.0139128,966,-0.0188749,966,-0.0109765,966,-0.0134792,
964,-0.0132584,964,-0.0137874,964,-0.0189347,964,-0.0109002,964,-0.0135986,
962,-0.0133183,962,-0.0140254,962,-0.0190571,962,-0.0111102,962,-0.0137138,
960,-0.0133044,960,-0.0137749,960,-0.0189897,960,-0.0107257,960,-0.0134506,
958,-0.0133452,958,-0.0138152,958,-0.0190986,958,-0.0108147,958,-0.0134581,
956,-0.0132952,956,-0.0138971,956,-0.0190718,956,-0.0108269,956,-0.0134251,
954,-0.0132682,954,-0.013851,954,-0.0190034,954,-0.0107677,954,-0.0134714,
952,-0.0134163,952,-0.0139149,952,-0.0189171,952,-0.0109525,952,-0.013604,
950,-0.013344,950,-0.0137557,950,-0.0189699,950,-0.0108821,950,-0.0135005,
948,-0.0133229,948,-0.0137639,948,-0.0191277,948,-0.011047,948,-0.0136179,
946,-0.0133112,946,-0.013815,946,-0.0188784,946,-0.0110255,946,-0.0135281,
944,-0.0132364,944,-0.0138054,944,-0.0188943,944,-0.0110148,944,-0.0134191,
942,-0.0132348,942,-0.0136706,942,-0.0188023,942,-0.011059,942,-0.0134784,
940,-0.0130733,940,-0.0137573,940,-0.018887,940,-0.0109293,940,-0.0133858,
938,-0.0131299,938,-0.0136909,938,-0.018827,938,-0.011049,938,-0.0134261,
936,-0.0133307,936,-0.0136385,936,-0.0188478,936,-0.0110705,936,-0.0133846,
934,-0.0130908,934,-0.0135719,934,-0.0188191,934,-0.0108806,934,-0.0134629,
932,-0.0131902,932,-0.013593,932,-0.0187716,932,-0.0107915,932,-0.0135477,
930,-0.0132848,930,-0.0137703,930,-0.0186849,930,-0.0109788,930,-0.0137463,
928,-0.0129829,928,-0.0137385,928,-0.0188605,928,-0.0110447,928,-0.0135592,
926,-0.0129726,926,-0.0135964,926,-0.0186748,926,-0.0108616,926,-0.0133977,
924,-0.0131216,924,-0.0137262,924,-0.0187359,924,-0.0110626,924,-0.0136948,
922,-0.0130635,922,-0.0136953,922,-0.0187287,922,-0.0110961,922,-0.0135924,
920,-0.0131624,920,-0.013686,920,-0.0187546,920,-0.0109788,920,-0.0136326,
918,-0.013453,918,-0.0136996,918,-0.0189056,918,-0.0110966,918,-0.0136689,
916,-0.0131064,916,-0.0137573,916,-0.0187489,916,-0.0111913,916,-0.0137821,
914,-0.0132722,914,-0.0137128,914,-0.0187683,914,-0.0111655,914,-0.013671,
912,-0.013083,912,-0.0137265,912,-0.0188631,912,-0.0111893,912,-0.0137317,
910,-0.0132595,910,-0.0136871,910,-0.0187326,910,-0.0112477,910,-0.0138465,
908,-0.0131753,908,-0.013688,908,-0.0189057,908,-0.011374,908,-0.0137579,
906,-0.0134314,906,-0.0138746,906,-0.0189534,906,-0.0113066,906,-0.0139118,
904,-0.0131443,904,-0.0137355,904,-0.0187157,904,-0.011265,904,-0.0135194,
902,-0.0133435,902,-0.0138729,902,-0.018683,902,-0.0113487,902,-0.0138799,
900,-0.0132065,900,-0.0139043,900,-0.0189264,900,-0.0113125,900,-0.0137804,
898,-0.0160113,898,-0.013667,898,-0.021402,898,-0.0106613,898,-0.0164817,
896,-0.0111034,896,-0.0232589,896,-0.0245071,896,-0.0140329,896,-0.0200439,
894,-0.0133174,894,-0.0189826,894,-0.0198732,894,-0.0145595,894,-0.022043,
892,-0.0130155,892,-0.023752,892,-0.0227127,892,-0.0173267,892,-0.0214867,
890,-0.0209608,890,-0.0199647,890,-0.0258149,890,-0.0240091,890,-0.0189948,
888,-0.0143469,888,-0.0179726,888,-0.024537,888,-0.020132,888,-0.0191619,
886,-0.0145272,886,-0.0128291,886,-0.0211781,886,-0.0149922,886,-0.0103962,
884,-0.0140574,884,-0.01812,884,-0.0222915,884,-0.0132435,884,-0.0188848,
882,-0.0182321,882,-0.0189345,882,-0.0262969,882,-0.0174679,882,-0.0198181,
880,-0.0177471,880,-0.0176408,880,-0.0236694,880,-0.0168796,880,-0.0207125,
878,-0.017599,878,-0.0195292,878,-0.0286849,878,-0.0176494,878,-0.0220193,
876,-0.0120368,876,-0.0199456,876,-0.0243611,876,-0.0143791,876,-0.0196131,
874,-0.015257,874,-0.0166565,874,-0.0238212,874,-0.0160087,874,-0.0194413,
872,-0.0174057,872,-0.0210024,872,-0.0261042,872,-0.0188277,872,-0.019035,
870,-0.0168625,870,-0.0199154,870,-0.0250395,870,-0.0159436,870,-0.0193317,
868,-0.0184277,868,-0.0182697,868,-0.0241651,868,-0.0176845,868,-0.0220368,
866,-0.0142991,866,-0.0177621,866,-0.0241449,866,-0.0147398,866,-0.0178709,
864,-0.0135151,864,-0.0169952,864,-0.0213416,864,-0.0166919,864,-0.0187885,
862,-0.014597,862,-0.0168517,862,-0.0233328,862,-0.0164309,862,-0.0186031,
860,-0.0151723,860,-0.0185298,860,-0.0241459,860,-0.0149139,860,-0.0181581,
858,-0.0162791,858,-0.0187381,858,-0.0243317,858,-0.0149538,858,-0.0196381,
856,-0.0169501,856,-0.0185756,856,-0.0246995,856,-0.0164771,856,-0.0201786,
854,-0.0152341,854,-0.0174852,854,-0.0232932,854,-0.0142141,854,-0.0179996,
852,-0.0142965,852,-0.0172195,852,-0.0243877,852,-0.0157036,852,-0.0184848,
850,-0.0140767,850,-0.0175727,850,-0.0231876,850,-0.0149776,850,-0.0179967,
848,-0.0150008,848,-0.0173168,848,-0.0231765,848,-0.0152831,848,-0.0187532,
846,-0.0149302,846,-0.0169141,846,-0.0235829,846,-0.0156418,846,-0.0188293,
844,-0.0153172,844,-0.0175301,844,-0.023452,844,-0.0149941,844,-0.0191786,
842,-0.0157272,842,-0.0180165,842,-0.0245868,842,-0.0161152,842,-0.0198549,
840,-0.0140396,840,-0.016959,840,-0.0237844,840,-0.0150289,840,-0.0185496,
838,-0.0145958,838,-0.0174336,838,-0.0236048,838,-0.015296,838,-0.0192664,
836,-0.0157063,836,-0.0181409,836,-0.02392,836,-0.0163748,836,-0.0196866,
834,-0.0145967,834,-0.0168442,834,-0.0237378,834,-0.0153031,834,-0.0186389,
832,-0.0147009,832,-0.0171987,832,-0.0233291,832,-0.0153666,832,-0.0189825,
830,-0.0152817,830,-0.017815,830,-0.0237354,830,-0.0157731,830,-0.0198346,
828,-0.01445,828,-0.0170913,828,-0.0237982,828,-0.015265,828,-0.0189641,
826,-0.0151915,826,-0.0175152,826,-0.024402,826,-0.015814,826,-0.0188914,
824,-0.0151342,824,-0.0179083,824,-0.0238073,824,-0.0160652,824,-0.0197499,
822,-0.0151831,822,-0.0176329,822,-0.0242857,822,-0.016542,822,-0.0195756,
820,-0.0154253,820,-0.0178459,820,-0.0243767,820,-0.0164177,820,-0.0196626,
818,-0.0151305,818,-0.0173221,818,-0.0242892,818,-0.0159503,818,-0.019674,
816,-0.0152208,816,-0.0179479,816,-0.0248661,816,-0.0163503,816,-0.0199879,
814,-0.015337,814,-0.0175726,814,-0.0246557,814,-0.0163408,814,-0.0199617,
812,-0.0149117,812,-0.0176281,812,-0.0239496,812,-0.016188,812,-0.0197142,
810,-0.0151663,810,-0.0179211,810,-0.0243445,810,-0.0162852,810,-0.0199724,
808,-0.0156343,808,-0.018098,808,-0.0246821,808,-0.0166823,808,-0.0201508,
806,-0.015171,806,-0.0179946,806,-0.0246033,806,-0.0166576,806,-0.0201477,
804,-0.0150109,804,-0.0179311,804,-0.0246107,804,-0.0164287,804,-0.0200844,
802,-0.014819,802,-0.0176849,802,-0.024431,802,-0.0162282,802,-0.0196461,
800,-0.0151031,800,-0.0177843,800,-0.0244551,800,-0.0163264,800,-0.0196447,
798,-0.0154568,798,-0.0178837,798,-0.0246178,798,-0.0162081,798,-0.0198214,
796,-0.0145529,796,-0.0171275,796,-0.0242986,796,-0.0159813,796,-0.0196623,
794,-0.0150321,794,-0.0175937,794,-0.0246352,794,-0.0162229,794,-0.0198013,
792,-0.015143,792,-0.0175325,792,-0.0241215,792,-0.0161944,792,-0.0197745,
790,-0.0150218,790,-0.0176845,790,-0.0242036,790,-0.0164016,790,-0.0197065,
788,-0.0149729,788,-0.017754,788,-0.0246157,788,-0.0164205,788,-0.0201327,
786,-0.0151584,786,-0.0176113,786,-0.0243743,786,-0.0165885,786,-0.0201805,
784,-0.0149007,784,-0.0176911,784,-0.0246643,784,-0.0163621,784,-0.0200862,
782,-0.0153138,782,-0.0176597,782,-0.0246685,782,-0.0163226,782,-0.0197737,
780,-0.01486,780,-0.0176785,780,-0.0243213,780,-0.0161132,780,-0.0199367,
778,-0.015014,778,-0.0173944,778,-0.024379,778,-0.0163579,778,-0.0200559,
776,-0.0150504,776,-0.0176153,776,-0.0243195,776,-0.0164018,776,-0.0200651,
774,-0.0147915,774,-0.0174348,774,-0.0243754,774,-0.0163484,774,-0.0198494,
772,-0.0148589,772,-0.0174638,772,-0.0242584,772,-0.0162864,772,-0.0198118,
770,-0.0148505,770,-0.0174929,770,-0.0243188,770,-0.0161035,770,-0.0196891,
768,-0.0147478,768,-0.0174188,768,-0.0239006,768,-0.0159434,768,-0.0193788,
766,-0.0146154,766,-0.0172372,766,-0.024504,766,-0.0160112,766,-0.0197386,
764,-0.0147843,764,-0.017053,764,-0.0242201,764,-0.015974,764,-0.0195181,
762,-0.0147459,762,-0.0172989,762,-0.0242302,762,-0.0163573,762,-0.0196667,
760,-0.0148607,760,-0.0173575,760,-0.0243701,760,-0.0160217,760,-0.0197176,
758,-0.0145932,758,-0.0173472,758,-0.0242697,758,-0.0162499,758,-0.0200651,
756,-0.0146192,756,-0.01746,756,-0.0241341,756,-0.0162508,756,-0.0199119,
754,-0.0146224,754,-0.0175595,754,-0.0242167,754,-0.0161372,754,-0.0200281,
752,-0.0146736,752,-0.0174193,752,-0.0242899,752,-0.0162729,752,-0.0196516,
750,-0.014545,750,-0.0169017,750,-0.024051,750,-0.0158004,750,-0.0197226,
748,-0.0146092,748,-0.017184,748,-0.0242738,748,-0.016179,748,-0.0197552,
746,-0.014364,746,-0.0170788,746,-0.0239834,746,-0.0158401,746,-0.0196026,
744,-0.0146124,744,-0.0172335,744,-0.0240805,744,-0.0161405,744,-0.0196397,
742,-0.014435,742,-0.0171325,742,-0.0243803,742,-0.0161285,742,-0.0197568,
740,-0.0147042,740,-0.0173124,740,-0.024318,740,-0.0163814,740,-0.0199702,
738,-0.0146392,738,-0.0171803,738,-0.0240031,738,-0.0158842,738,-0.0196468,
736,-0.0142801,736,-0.0170672,736,-0.0239338,736,-0.0159014,736,-0.0196748,
734,-0.0143227,734,-0.0170196,734,-0.0238961,734,-0.0160163,734,-0.0193782,
732,-0.0145808,732,-0.0171027,732,-0.0238948,732,-0.0160948,732,-0.0198421,
730,-0.0143547,730,-0.0171555,730,-0.024112,730,-0.0159911,730,-0.0198514,
728,-0.0140668,728,-0.0168855,728,-0.0239147,728,-0.0156312,728,-0.0195188,
726,-0.0145342,726,-0.0172515,726,-0.0241068,726,-0.0158972,726,-0.0197995,
724,-0.0143072,724,-0.0171179,724,-0.023952,724,-0.0159031,724,-0.0195351,
722,-0.014199,722,-0.0172036,722,-0.0239141,722,-0.0160209,722,-0.0194969,
720,-0.0143125,720,-0.0169846,720,-0.0236336,720,-0.0158844,720,-0.0196928,
718,-0.0140181,718,-0.0169603,718,-0.0235252,718,-0.0155947,718,-0.0195106,
716,-0.0139848,716,-0.0170049,716,-0.0237512,716,-0.0157956,716,-0.0195329,
714,-0.0143163,714,-0.0169341,714,-0.0238429,714,-0.0158953,714,-0.019621,
712,-0.0142604,712,-0.016838,712,-0.0240235,712,-0.0158738,712,-0.0197284,
710,-0.0140529,710,-0.0170712,710,-0.0238274,710,-0.0161019,710,-0.0195458,
708,-0.0140811,708,-0.0169844,708,-0.0238684,708,-0.0157564,708,-0.0197191,
706,-0.0139297,706,-0.0168388,706,-0.0236971,706,-0.0156977,706,-0.0195962,
704,-0.0139836,704,-0.0169037,704,-0.023777,704,-0.0158316,704,-0.019566,
702,-0.0140419,702,-0.0168622,702,-0.0237246,702,-0.0158774,702,-0.019457,
700,-0.0139392,700,-0.0166625,700,-0.0235907,700,-0.01549,700,-0.0195383,
698,-0.0138219,698,-0.0166024,698,-0.0235975,698,-0.0155671,698,-0.0193621,
696,-0.0137427,696,-0.0165381,696,-0.0234825,696,-0.0155861,696,-0.0195114,
694,-0.0138375,694,-0.0167295,694,-0.0236413,694,-0.0156886,694,-0.0195234,
692,-0.0135713,692,-0.0164878,692,-0.0234649,692,-0.0153983,692,-0.0193019,
690,-0.013672,690,-0.0165571,690,-0.0236024,690,-0.0154907,690,-0.0193041,
688,-0.0136807,688,-0.0166662,688,-0.0234564,688,-0.0154645,688,-0.0193115,
686,-0.0133326,686,-0.0164806,686,-0.0231548,686,-0.0153538,686,-0.0191736,
684,-0.0137388,684,-0.0163946,684,-0.0234759,684,-0.0154113,684,-0.0193375,
682,-0.0135267,682,-0.0165511,682,-0.0234335,682,-0.015475,682,-0.0192158,
680,-0.0133436,680,-0.016391,680,-0.0232372,680,-0.0152579,680,-0.0192211,
678,-0.0133565,678,-0.016447,678,-0.0233017,678,-0.015278,678,-0.0190902,
676,-0.0133607,676,-0.0163883,676,-0.0233378,676,-0.0153271,676,-0.0191443,
674,-0.0133625,674,-0.0162036,674,-0.0231683,674,-0.0153185,674,-0.0190998,
672,-0.0134828,672,-0.0163419,672,-0.0233533,672,-0.0153212,672,-0.0193586,
670,-0.0132851,670,-0.0165731,670,-0.0233862,670,-0.015456,670,-0.0192651,
668,-0.0130357,668,-0.016076,668,-0.0231177,668,-0.0152307,668,-0.0189993,
666,-0.0131707,666,-0.0161345,666,-0.0232195,666,-0.0152148,666,-0.0189924,
664,-0.0132113,664,-0.0163582,664,-0.0232967,664,-0.0152666,664,-0.0191601,
662,-0.0131667,662,-0.0163305,662,-0.023387,662,-0.0153156,662,-0.0190208,
660,-0.013067,660,-0.0162534,660,-0.0232293,660,-0.0152557,660,-0.0190583,
658,-0.0129854,658,-0.0162,658,-0.0233492,658,-0.0153077,658,-0.0190564,
656,-0.012936,656,-0.0160929,656,-0.0232691,656,-0.0152527,656,-0.0189958,
654,-0.0131471,654,-0.0164847,654,-0.0235499,654,-0.0154094,654,-0.0190594,
652,-0.0130256,652,-0.0164789,652,-0.0236398,652,-0.0156033,652,-0.0192928,
650,-0.0132058,650,-0.0164363,650,-0.0236015,650,-0.0155777,650,-0.0192152,
648,-0.0131005,648,-0.0164276,648,-0.0237459,648,-0.0156933,648,-0.0192591,
646,-0.0131539,646,-0.0163991,646,-0.0235911,646,-0.0157542,646,-0.0191842,
644,-0.013072,644,-0.0163379,644,-0.0236873,644,-0.0157555,644,-0.0193219,
642,-0.0129589,642,-0.0162988,642,-0.0236529,642,-0.0157071,642,-0.0191895,
640,-0.0129867,640,-0.0164302,640,-0.0237233,640,-0.0158604,640,-0.0191788,
638,-0.0127761,638,-0.0162633,638,-0.0235777,638,-0.0156628,638,-0.0190803,
636,-0.0127796,636,-0.0164186,636,-0.0237899,636,-0.0157217,636,-0.01923,
634,-0.0126336,634,-0.0160999,634,-0.0236104,634,-0.0155664,634,-0.0191276,
632,-0.0123317,632,-0.0159273,632,-0.0234143,632,-0.0153672,632,-0.0188642,
630,-0.0121847,630,-0.0158616,630,-0.0231684,630,-0.0151797,630,-0.018693,
628,-0.012201,628,-0.0156231,628,-0.0229577,628,-0.0151332,628,-0.0186468,
626,-0.0118441,626,-0.0155485,626,-0.0229298,626,-0.0147739,626,-0.0184289,
624,-0.0114157,624,-0.0150279,624,-0.0224803,624,-0.0142878,624,-0.0180548,
622,-0.0109774,622,-0.0148369,622,-0.0220818,622,-0.0140675,622,-0.0178873,
620,-0.010756,620,-0.0145951,620,-0.0219448,620,-0.0137516,620,-0.0176963,
618,-0.0102111,618,-0.0141154,618,-0.0213607,618,-0.0131952,618,-0.0171316,
616,-0.00983388,616,-0.0136915,616,-0.0209962,616,-0.0129017,616,-0.0169455,
614,-0.00933952,614,-0.0133587,614,-0.0205305,614,-0.0123053,614,-0.0165115,
612,-0.00873561,612,-0.0127931,612,-0.0199997,612,-0.0117838,612,-0.0158848,
610,-0.00805474,610,-0.0124396,610,-0.01972,610,-0.0113921,610,-0.0156384,
608,-0.00748284,608,-0.0118729,608,-0.0191939,608,-0.0108956,608,-0.0150768,
606,-0.00679134,606,-0.0114367,606,-0.0187234,606,-0.0104442,606,-0.0147292,
604,-0.00622736,604,-0.010915,604,-0.0183834,604,-0.0100025,604,-0.0143365,
602,-0.00546883,602,-0.0104558,602,-0.0179965,602,-0.00959416,602,-0.0138403,
600,-0.0047628,600,-0.00988515,600,-0.0175759,600,-0.00930658,600,-0.0135225,
598,-0.00382715,598,-0.00918571,598,-0.0169967,598,-0.0086092,598,-0.0128599,
596,-0.00276491,596,-0.00839958,596,-0.0164157,596,-0.00801835,596,-0.0124262,
594,-0.00166593,594,-0.00746762,594,-0.0155355,594,-0.0071385,594,-0.0117333,
592,-0.000394995,592,-0.00645221,592,-0.0147986,592,-0.0062291,592,-0.0109907,
590,0.0010886,590,-0.00534739,590,-0.013725,590,-0.00510744,590,-0.0100869,
588,0.00264996,588,-0.00401848,588,-0.0125471,588,-0.00389797,588,-0.00909653,
586,0.00410602,586,-0.00272278,586,-0.0114172,586,-0.00264529,586,-0.0080829,
584,0.00599286,584,-0.00108621,584,-0.00971908,584,-0.00101179,584,-0.00682625,
582,0.00781084,582,0.000336726,582,-0.00838119,582,0.000295304,582,-0.00566214,
580,0.00986016,580,0.00206613,580,-0.00668042,580,0.0022238,580,-0.00423499,
578,0.011823,578,0.0036962,578,-0.00512023,578,0.00376785,578,-0.00285812,
576,0.0137084,576,0.00529434,576,-0.00339433,576,0.0055073,576,-0.00171482,
574,0.0158007,574,0.00709653,574,-0.00174741,574,0.00728999,574,-9.02291e-05,
572,0.0180275,572,0.00901483,572,1.76028e-05,572,0.00921433,572,0.00125568,
570,0.0201122,570,0.0109175,570,0.00199344,570,0.0112904,570,0.00297736,
568,0.0221136,568,0.0125767,568,0.00372832,568,0.0132009,568,0.00455185,
566,0.0244276,566,0.0146335,566,0.00582398,566,0.0153314,566,0.00627848,
564,0.0266345,564,0.0165623,564,0.0078271,564,0.0173101,564,0.00784431,
562,0.0289577,562,0.0186459,562,0.00993439,562,0.0197428,562,0.00975788,
560,0.031182,560,0.0206565,560,0.0119008,560,0.0217923,560,0.011381,
558,0.033455,558,0.022802,558,0.0141103,558,0.0241823,558,0.0133088,
556,0.03562,556,0.0249036,556,0.0160821,556,0.0263852,556,0.0149544,
554,0.0380568,554,0.0270201,554,0.0181463,554,0.0286689,554,0.0168257,
552,0.0404468,552,0.0292671,552,0.0203744,552,0.0311457,552,0.0189159,
550,0.0428568,550,0.0315331,550,0.0227179,550,0.0333148,550,0.0208643,
548,0.0453446,548,0.0338034,548,0.0250635,548,0.0357967,548,0.022846,
546,0.0478358,546,0.0362444,546,0.0273213,546,0.038394,546,0.0250464,
544,0.050581,544,0.0388218,544,0.0300439,544,0.0411791,544,0.0275356,
542,0.0528403,542,0.0408694,542,0.0319868,542,0.0433758,542,0.0293314,
540,0.0550679,540,0.0431001,540,0.034057,540,0.0457045,540,0.0313653,
538,0.0576237,538,0.0455068,538,0.0365051,538,0.048226,538,0.033564,
536,0.0600485,536,0.0477107,536,0.0387488,536,0.0506016,536,0.0355138,
534,0.0622368,534,0.0500125,534,0.0407904,534,0.0530035,534,0.0375466,
532,0.0648181,532,0.0522967,532,0.0432388,532,0.0555116,532,0.0396785,
530,0.0670877,530,0.0545353,530,0.0454716,530,0.0577305,530,0.0418011,
528,0.069119,528,0.0564849,528,0.0474366,528,0.0598939,528,0.0436056,
526,0.0712872,526,0.0588317,526,0.0495739,526,0.0623208,526,0.0456991,
524,0.0732467,524,0.0607439,524,0.0515862,524,0.0644303,524,0.0476598,
522,0.0754872,522,0.0629478,522,0.053777,522,0.0667025,522,0.0497105,
520,0.0773222,520,0.0647775,520,0.0556009,520,0.0688518,520,0.0515719,
518,0.079029,518,0.0667185,518,0.057548,518,0.0707735,518,0.0534818,
516,0.0807895,516,0.0684215,516,0.0593781,516,0.0726276,516,0.055127,
514,0.0825857,514,0.0703977,514,0.0612643,514,0.0747172,514,0.0571353,
512,0.0843736,512,0.0721032,512,0.0630678,512,0.0766172,512,0.0588927,
510,0.0858898,510,0.0737114,510,0.0647809,510,0.0784422,510,0.060625,
508,0.087454,508,0.0753572,508,0.0663621,508,0.0803195,508,0.0623483,
506,0.0889411,506,0.0770447,506,0.0680971,506,0.0820921,506,0.0640805,
504,0.09035,504,0.0785326,504,0.0696383,504,0.0838465,504,0.0657776,
502,0.0915723,502,0.0800458,502,0.0711653,502,0.0854219,502,0.0672084,
500,0.0929874,500,0.0814502,500,0.0724962,500,0.0869774,500,0.0687661,
498,0.0940815,498,0.0827515,498,0.0739279,498,0.0883279,498,0.07037,
496,0.095187,496,0.0839508,496,0.0752323,496,0.0897488,496,0.071606,
494,0.0962855,494,0.0850985,494,0.0763899,494,0.091032,494,0.0730378,
492,0.0970269,492,0.0859871,492,0.0774109,492,0.0920172,492,0.074173,
490,0.0975219,490,0.0868513,490,0.0782561,490,0.0930782,490,0.0751094,
488,0.0985657,488,0.08786,488,0.0794702,488,0.0942968,488,0.0766108,
486,0.0989633,486,0.0886984,486,0.0801649,486,0.0951369,486,0.0775011,
484,0.0996662,484,0.0894124,484,0.0809556,484,0.0958673,484,0.0784056,
482,0.0999592,482,0.0900763,482,0.0815723,482,0.0965748,482,0.0793841,
480,0.100461,480,0.0905814,480,0.0822623,480,0.0973306,480,0.0802733,
478,0.10066,478,0.0909817,478,0.0828352,478,0.0979684,478,0.0809489,
476,0.100819,476,0.0914075,476,0.0831129,476,0.0984556,476,0.0817231,
474,0.100757,474,0.0915363,474,0.0835567,474,0.0987334,474,0.0821771,
472,0.100867,472,0.0918528,472,0.0838886,472,0.0990907,472,0.0827451,
470,0.100707,470,0.0918541,470,0.0840424,470,0.0992882,470,0.0832105,
468,0.10037,468,0.0917268,468,0.0840423,468,0.0993238,468,0.0834698,
466,0.100115,466,0.0917246,466,0.0840906,466,0.0993984,466,0.0837823,
464,0.09972,464,0.0915707,464,0.08398,464,0.0992701,464,0.0840252,
462,0.0991698,462,0.0911262,462,0.0835982,462,0.0989296,462,0.0838935,
460,0.0984291,460,0.0908002,460,0.0832198,460,0.098581,460,0.0837895,
458,0.0976018,458,0.0900093,458,0.082696,458,0.0978915,458,0.0834616,
456,0.0966592,456,0.0893214,456,0.0821136,456,0.0973927,456,0.0831438,
454,0.0960618,454,0.0888579,454,0.0815264,454,0.0966813,454,0.0829365,
452,0.0948024,452,0.0876328,452,0.0806912,452,0.0956061,452,0.0821481,
450,0.0936153,450,0.086757,450,0.0799376,450,0.0948668,450,0.0816271,
448,0.0925224,448,0.0858085,448,0.0790009,448,0.0938512,448,0.0810721,
446,0.0913553,446,0.0848028,446,0.0780044,446,0.0930961,446,0.0803306,
444,0.0901956,444,0.0836779,444,0.0770361,444,0.092015,444,0.0795344,
442,0.0888925,442,0.0826576,442,0.075957,442,0.0908011,442,0.0786126,
440,0.0874486,440,0.0814525,440,0.0748257,440,0.0896175,440,0.0780127,
438,0.0860696,438,0.0802114,438,0.073883,438,0.0883233,438,0.0769046,
436,0.0845813,436,0.0789018,436,0.0725869,436,0.086968,436,0.0759157,
434,0.0830336,434,0.0772915,434,0.0711031,434,0.085629,434,0.0748225,
432,0.08122,432,0.0759107,432,0.0697601,432,0.0840535,432,0.0734562,
430,0.0796236,430,0.0744242,430,0.0685405,430,0.0824868,430,0.0722779,
428,0.0778638,428,0.0727991,428,0.0668962,428,0.0808971,428,0.0708695,
426,0.076224,426,0.0712626,426,0.0653913,426,0.0795425,426,0.0696984,
424,0.0743858,424,0.0694065,424,0.0637316,424,0.077614,424,0.0680899,
422,0.0724743,422,0.0676393,422,0.0620473,422,0.0759233,422,0.0665102,
420,0.0706038,420,0.0659021,420,0.0603305,420,0.0739104,420,0.065055,
418,0.0690052,418,0.0642924,418,0.0587705,418,0.0721694,418,0.0636714,
416,0.067105,416,0.0626612,416,0.0573123,416,0.070536,416,0.0621817,
414,0.0654282,414,0.060996,414,0.0555943,414,0.0687283,414,0.0604987,
412,0.0635423,412,0.0591287,412,0.053954,412,0.067148,412,0.0590112,
410,0.062139,410,0.0577181,410,0.0526306,410,0.0655423,410,0.0577131,
408,0.0603541,408,0.0560903,408,0.0509075,408,0.0637862,408,0.0561007,
406,0.0588476,406,0.0546213,406,0.0496411,406,0.0623394,406,0.0549443,
404,0.0571093,404,0.0528235,404,0.0480651,404,0.0605525,404,0.0532682,
402,0.0554569,402,0.0514104,402,0.0464043,402,0.0589069,402,0.0517004,
400,0.0538681,400,0.0495519,400,0.0448332,400,0.0573852,400,0.0502659,
398,0.0521461,398,0.0482015,398,0.0434381,398,0.0557233,398,0.0489141,
396,0.0502103,396,0.0466284,396,0.0417006,396,0.0539031,396,0.0471908,
394,0.0494328,394,0.0455055,394,0.0405741,394,0.0526749,394,0.0461803,
392,0.0475882,392,0.043588,392,0.0389561,392,0.050769,392,0.0446423,
390,0.0461915,390,0.0424017,390,0.0376359,390,0.0495402,390,0.0431425,
388,0.0447369,388,0.0408766,388,0.0362498,388,0.0479847,388,0.041775,
386,0.043554,386,0.0395556,386,0.0349457,386,0.0465864,386,0.0403923,
384,0.0419584,384,0.0383983,384,0.0337345,384,0.0451393,384,0.0393351,
382,0.0406983,382,0.0372114,382,0.0326772,382,0.0439044,382,0.0383472,
380,0.0397386,380,0.0363207,380,0.0316093,380,0.0429739,380,0.037367,
378,0.0382933,378,0.0349729,378,0.0303528,378,0.0415945,378,0.0361777,
376,0.0373816,376,0.0339557,376,0.029613,376,0.0405159,376,0.0348927,
374,0.0359644,374,0.0328431,374,0.0282454,374,0.0391934,374,0.0337991,
372,0.0354577,372,0.0323293,372,0.0276169,372,0.0388472,372,0.0330242,
370,0.0338925,370,0.0308152,370,0.0264369,370,0.0372754,370,0.0317838,
368,0.0331707,368,0.0302214,368,0.0257767,368,0.0367708,368,0.0311576,
366,0.0321541,366,0.0294313,366,0.0250914,366,0.0359407,366,0.0303723,
364,0.0314086,364,0.0285122,364,0.0241971,364,0.0349705,364,0.0294539,
362,0.0302723,362,0.027507,362,0.0234345,362,0.0338907,362,0.0284155,
360,0.0297489,360,0.0268736,360,0.0223744,360,0.0332446,360,0.0277414,
358,0.0290028,358,0.0260368,358,0.021882,358,0.0322043,358,0.0271322,
356,0.028043,356,0.0253705,356,0.020861,356,0.0316957,356,0.0263644,
354,0.0270893,354,0.0244828,354,0.020626,354,0.0309118,354,0.025567,
352,0.0263947,352,0.0240791,352,0.0195025,352,0.0303165,352,0.0250499,
350,0.0252019,350,0.0230497,350,0.0188764,350,0.0293052,350,0.0241185,
348,0.024965,348,0.0227827,348,0.0186204,348,0.0288272,348,0.0236679,
346,0.0240457,346,0.0218093,346,0.0179826,346,0.02814,346,0.0229168,
344,0.0235337,344,0.0214288,344,0.0172133,344,0.0276855,344,0.022417,
342,0.0228334,342,0.0212126,342,0.0165186,342,0.0268757,342,0.0216101,
340,0.0222031,340,0.0204483,340,0.0163729,340,0.0266786,340,0.0213461,
338,0.0215003,338,0.0194388,338,0.0154316,338,0.0258145,338,0.0206205,
336,0.0217261,336,0.0198411,336,0.0161166,336,0.0259844,336,0.0211686,
334,0.020747,334,0.0191223,334,0.0148011,334,0.0254813,334,0.0199751,
332,0.0203063,332,0.0187005,332,0.014643,332,0.024662,332,0.0197682,
330,0.0198287,330,0.0185172,330,0.0144089,330,0.0242312,330,0.0192688,
328,0.0190915,328,0.0173391,328,0.0134342,328,0.0234824,328,0.0185306,
326,0.0184425,326,0.0170858,326,0.0130696,326,0.0232881,326,0.018273,
324,0.0177268,324,0.0164733,324,0.0124633,324,0.0226133,324,0.0177797,
322,0.0172931,322,0.0159532,322,0.0121185,322,0.0221158,322,0.017242,
320,0.0168164,320,0.0156308,320,0.012097,320,0.0222537,320,0.0171469,
318,0.0158418,318,0.0148167,318,0.011147,318,0.0213764,318,0.016195,
316,0.0161119,316,0.0146059,316,0.0108397,316,0.0207119,316,0.0160489,
314,0.0154597,314,0.014642,314,0.0107322,314,0.0207552,314,0.0155439,
312,0.0152853,312,0.0138649,312,0.0102684,312,0.0203109,312,0.0148919,
310,0.0143354,310,0.0133054,310,0.00991191,310,0.0194696,310,0.0147235,
308,0.0135208,308,0.0130406,308,0.00904564,308,0.0189064,308,0.0144118,
306,0.0134869,306,0.0122125,306,0.0086955,306,0.018647,306,0.0137975,
304,0.0129704,304,0.0116346,304,0.00784091,304,0.0178964,304,0.0131663,
302,0.0125419,302,0.0119437,302,0.00806324,302,0.0183868,302,0.0130692,
300.667,0.0125201,300.667,0.0113555,300.667,0.00729152,300.667,0.0175761,300.667,0.0127556,

non-imine undoped,
non-imine undoped
Collection Time: 2024-09-03 1:37:58 PM
Operator Name  :
Scan Version 6.4.0.1610
Parameter List :
Instrument  Cary 7000
Instrument Version  3.07
Method Log     :
Method Name    :
Date/Time stamp: 2024-09-03 1:29:02 PM
Method Modifications:
ConcentrationReportSelected Changed: 2024-09-03 1:29:03 PM, Old:Choice 0, New:Choice 1
ConcentrationReportSelected Changed: 2024-09-03 1:29:03 PM, Old:ON, New:Choice 0
MCAReportSelected Changed: 2024-09-03 1:29:03 PM, Old:Choice 0, New:Choice 1
MCAReportSelected Changed: 2024-09-03 1:29:03 PM, Old:ON, New:Choice 0
X Start nm Changed: 2024-09-03 1:30:02 PM, Old:800.000, New:1200.000
X Stop nm Changed: 2024-09-03 1:30:02 PM, Old:200.000, New:300.000
UVVIS Scan Rate nm Changed: 2024-09-03 1:30:02 PM, Old:  602.007, New:  600.000
NIR Scan Rate nm Changed: 2024-09-03 1:30:02 PM, Old:    0.004, New:   12.000
Common Interval nm Changed: 2024-09-03 1:30:02 PM, Old:    1.000, New:    0.667
Source changeover Changed: 2024-09-03 1:30:02 PM, Old:   350.00, New:   300.00
Detector changeover Changed: 2024-09-03 1:30:02 PM, Old:   800.00, New:   900.00
Grating changeover Changed: 2024-09-03 1:30:02 PM, Old:   800.00, New:   900.00
Baseline Correction Changed: 2024-09-03 1:30:02 PM, Old:0, New:2
Sipper Type Changed: 2024-09-03 1:30:02 PM, Old:Internal RSA, New:External sipper
End Method Modifications
<Current Wavelength> , 299.333
<SBW (nm)> , 2.00
<Energy> , 87.10
<Slit Height> , Full

non-imine 1 min FeCl3 doping,
non-imine 1 min FeCl3 doping
Collection Time: 2024-09-03 2:04:55 PM
Operator Name  :
Scan Version 6.4.0.1610
Parameter List :
Instrument  Cary 7000
Instrument Version  3.07
Method Log     :
Method Name    :
Date/Time stamp: 2024-09-03 1:29:02 PM
Method Modifications:
ConcentrationReportSelected Changed: 2024-09-03 1:29:03 PM, Old:Choice 0, New:Choice 1
ConcentrationReportSelected Changed: 2024-09-03 1:29:03 PM, Old:ON, New:Choice 0
MCAReportSelected Changed: 2024-09-03 1:29:03 PM, Old:Choice 0, New:Choice 1
MCAReportSelected Changed: 2024-09-03 1:29:03 PM, Old:ON, New:Choice 0
X Start nm Changed: 2024-09-03 1:30:02 PM, Old:800.000, New:1200.000
X Stop nm Changed: 2024-09-03 1:30:02 PM, Old:200.000, New:300.000
UVVIS Scan Rate nm Changed: 2024-09-03 1:30:02 PM, Old:  602.007, New:  600.000
NIR Scan Rate nm Changed: 2024-09-03 1:30:02 PM, Old:    0.004, New:   12.000
Common Interval nm Changed: 2024-09-03 1:30:02 PM, Old:    1.000, New:    0.667
Source changeover Changed: 2024-09-03 1:30:02 PM, Old:   350.00, New:   300.00
Detector changeover Changed: 2024-09-03 1:30:02 PM, Old:   800.00, New:   900.00
Grating changeover Changed: 2024-09-03 1:30:02 PM, Old:   800.00, New:   900.00
Baseline Correction Changed: 2024-09-03 1:30:02 PM, Old:0, New:2
Sipper Type Changed: 2024-09-03 1:30:02 PM, Old:Internal RSA, New:External sipper
End Method Modifications
<Current Wavelength> , 300.000
<SBW (nm)> , 2.00
<Energy> , 87.10
<Slit Height> , Full

non-imine 10 min FeCl3,
non-imine 10 min FeCl3
Collection Time: 2024-09-03 2:51:43 PM
Operator Name  :
Scan Version 6.4.0.1610
Parameter List :
Instrument  Cary 7000
Instrument Version  3.07
Method Log     :
Method Name    :
Date/Time stamp: 2024-09-03 1:29:02 PM
Method Modifications:
ConcentrationReportSelected Changed: 2024-09-03 1:29:03 PM, Old:Choice 0, New:Choice 1
ConcentrationReportSelected Changed: 2024-09-03 1:29:03 PM, Old:ON, New:Choice 0
MCAReportSelected Changed: 2024-09-03 1:29:03 PM, Old:Choice 0, New:Choice 1
MCAReportSelected Changed: 2024-09-03 1:29:03 PM, Old:ON, New:Choice 0
X Start nm Changed: 2024-09-03 1:30:02 PM, Old:800.000, New:1200.000
X Stop nm Changed: 2024-09-03 1:30:02 PM, Old:200.000, New:300.000
UVVIS Scan Rate nm Changed: 2024-09-03 1:30:02 PM, Old:  602.007, New:  600.000
NIR Scan Rate nm Changed: 2024-09-03 1:30:02 PM, Old:    0.004, New:   12.000
Common Interval nm Changed: 2024-09-03 1:30:02 PM, Old:    1.000, New:    0.667
Source changeover Changed: 2024-09-03 1:30:02 PM, Old:   350.00, New:   300.00
Detector changeover Changed: 2024-09-03 1:30:02 PM, Old:   800.00, New:   900.00
Grating changeover Changed: 2024-09-03 1:30:02 PM, Old:   800.00, New:   900.00
Baseline Correction Changed: 2024-09-03 1:30:02 PM, Old:0, New:2
Sipper Type Changed: 2024-09-03 1:30:02 PM, Old:Internal RSA, New:External sipper
End Method Modifications
<Current Wavelength> , 300.000
<SBW (nm)> , 2.00
<Energy> , 87.10
<Slit Height> , Full

non-imine 30 min FeCl3 doping,
non-imine 30 min FeCl3 doping
Collection Time: 2024-09-03 3:26:16 PM
Operator Name  :
Scan Version 6.4.0.1610
Parameter List :
Instrument  Cary 7000
Instrument Version  3.07
Method Log     :
Method Name    :
Date/Time stamp: 2024-09-03 1:29:02 PM
Method Modifications:
ConcentrationReportSelected Changed: 2024-09-03 1:29:03 PM, Old:Choice 0, New:Choice 1
ConcentrationReportSelected Changed: 2024-09-03 1:29:03 PM, Old:ON, New:Choice 0
MCAReportSelected Changed: 2024-09-03 1:29:03 PM, Old:Choice 0, New:Choice 1
MCAReportSelected Changed: 2024-09-03 1:29:03 PM, Old:ON, New:Choice 0
X Start nm Changed: 2024-09-03 1:30:02 PM, Old:800.000, New:1200.000
X Stop nm Changed: 2024-09-03 1:30:02 PM, Old:200.000, New:300.000
UVVIS Scan Rate nm Changed: 2024-09-03 1:30:02 PM, Old:  602.007, New:  600.000
NIR Scan Rate nm Changed: 2024-09-03 1:30:02 PM, Old:    0.004, New:   12.000
Common Interval nm Changed: 2024-09-03 1:30:02 PM, Old:    1.000, New:    0.667
Source changeover Changed: 2024-09-03 1:30:02 PM, Old:   350.00, New:   300.00
Detector changeover Changed: 2024-09-03 1:30:02 PM, Old:   800.00, New:   900.00
Grating changeover Changed: 2024-09-03 1:30:02 PM, Old:   800.00, New:   900.00
Baseline Correction Changed: 2024-09-03 1:30:02 PM, Old:0, New:2
Sipper Type Changed: 2024-09-03 1:30:02 PM, Old:Internal RSA, New:External sipper
End Method Modifications
<Current Wavelength> , 300.000
<SBW (nm)> , 2.00
<Energy> , 91.20
<Slit Height> , Full

non-imine polymer 1 hour FeCl3,
non-imine polymer 1 hour FeCl3
Collection Time: 2024-09-03 4:30:41 PM
Operator Name  :
Scan Version 6.4.0.1610
Parameter List :
Instrument  Cary 7000
Instrument Version  3.07
Method Log     :
Method Name    :
Date/Time stamp: 2024-09-03 1:29:02 PM
Method Modifications:
ConcentrationReportSelected Changed: 2024-09-03 1:29:03 PM, Old:Choice 0, New:Choice 1
ConcentrationReportSelected Changed: 2024-09-03 1:29:03 PM, Old:ON, New:Choice 0
MCAReportSelected Changed: 2024-09-03 1:29:03 PM, Old:Choice 0, New:Choice 1
MCAReportSelected Changed: 2024-09-03 1:29:03 PM, Old:ON, New:Choice 0
X Start nm Changed: 2024-09-03 1:30:02 PM, Old:800.000, New:1200.000
X Stop nm Changed: 2024-09-03 1:30:02 PM, Old:200.000, New:300.000
UVVIS Scan Rate nm Changed: 2024-09-03 1:30:02 PM, Old:  602.007, New:  600.000
NIR Scan Rate nm Changed: 2024-09-03 1:30:02 PM, Old:    0.004, New:   12.000
Common Interval nm Changed: 2024-09-03 1:30:02 PM, Old:    1.000, New:    0.667
Source changeover Changed: 2024-09-03 1:30:02 PM, Old:   350.00, New:   300.00
Detector changeover Changed: 2024-09-03 1:30:02 PM, Old:   800.00, New:   900.00
Grating changeover Changed: 2024-09-03 1:30:02 PM, Old:   800.00, New:   900.00
Baseline Correction Changed: 2024-09-03 1:30:02 PM, Old:0, New:2
Sipper Type Changed: 2024-09-03 1:30:02 PM, Old:Internal RSA, New:External sipper
End Method Modifications
<Current Wavelength> , 300.000
<SBW (nm)> , 2.00
<Energy> , 87.10
<Slit Height> , Full