File: UV-Vis data/2024_09/2024_09_06_imine 48hrs post neutralization.csv
imine polymer 0% TFA,,imine polymer 0.017% TFA,,imine polymer 0.05% TFA,,imine polymer 0.25% TFA,,imine polymer 1.0% TFA,,
Wavelength (nm),Abs,Wavelength (nm),Abs,Wavelength (nm),Abs,Wavelength (nm),Abs,Wavelength (nm),Abs,
1400,0.000319421,1400,0.0040426,1400,0.00364156,1400,0.0076966,1400,0.00639413,
1398,0.000424712,1398,0.0032391,1398,0.00288026,1398,0.00720995,1398,0.00602087,
1396,0.000415461,1396,0.00253049,1396,0.00229445,1396,0.00687624,1396,0.00577576,
1394,0.000503567,1394,0.00212614,1394,0.0019412,1394,0.00670081,1394,0.00574129,
1392,0.000510331,1392,0.00185574,1392,0.00164709,1392,0.0063282,1392,0.00579265,
1390,0.000493615,1390,0.00167637,1390,0.00148684,1390,0.00608389,1390,0.00595937,
1388,0.000550996,1388,0.00162396,1388,0.00141451,1388,0.00572427,1388,0.00600779,
1386,0.000594256,1386,0.00152253,1386,0.0013177,1386,0.00536339,1386,0.0060237,
1384,0.000515618,1384,0.00150708,1384,0.00111969,1384,0.00494496,1384,0.00585953,
1382,0.0005088537,1382,0.00146734,1382,0.0011907,1382,0.00469504,1382,0.00565487,
1380,0.000481565,1380,0.00143362,1380,0.00107552,1380,0.00445128,1380,0.00536678,
1378,0.000482757,1378,0.00131267,1378,0.000999234,1378,0.004212467,1378,0.0050013,
1376,0.000525,1376,0.00134575,1376,0.0010361,1376,0.00404218,1376,0.00475112,
1374,0.000499135,1374,0.00131399,1374,0.000982681,1374,0.00388045,1374,0.00468036,
1372,0.0004861,1372,0.00134486,1372,0.000968801,1372,0.00383292,1372,0.00496156,
1370,0.000406548,1370,0.00136423,1370,0.00101641,1370,0.00383587,1370,0.00530412,
1368,0.000433496,1368,0.00140493,1368,0.00106055,1368,0.00381751,1368,0.00548675,
1366,0.000452023,1366,0.0013359,1366,0.000997392,1366,0.00353437,1366,0.00520529,
1364,0.000471484,1364,0.00122336,1364,0.00079343,1364,0.00317476,1364,0.00457134,
1362,0.000528758,1362,0.00113786,1362,0.000718386,1362,0.00298544,1362,0.00417156,
1360,0.000500923,1360,0.00105668,1360,0.000713096,1360,0.00292797,1360,0.00408433,
1358,0.000558538,1358,0.000980087,1358,0.000598404,1358,0.00282064,1358,0.00393622,
1356,0.000466353,1356,0.000779686,1356,0.000370146,1356,0.00238931,1356,0.00369863,
1354,0.000484882,1354,0.000677965,1354,0.000337114,1354,0.00215751,1354,0.00357203,
1352,0.000400174,1352,0.000590783,1352,0.000185254,1352,0.00184591,1352,0.00343263,
1350,0.000403543,1350,0.000517588,1350,2.20554e-05,1350,0.00139547,1350,0.00292078,
1348,0.000391754,1348,0.000399008,1348,-3.57729e-05,1348,0.00103307,1348,0.00220114,
1346,0.000348435,1346,0.000281187,1346,-0.000153632,1346,0.000641254,1346,0.00136769,
1344,0.000283984,1344,0.000182483,1344,-0.000273115,1344,0.000364731,1344,0.000859539,
1342,0.000300925,1342,0.000193178,1342,-0.000288998,1342,0.000266552,1342,0.000690435,
1340,0.000321726,1340,0.000180048,1340,-0.000301881,1340,0.000225733,1340,0.000516784,
1338,0.000376804,1338,0.000189242,1338,-0.000258576,1338,0.000248991,1338,0.00052303,
1336,0.000392194,1336,0.000180929,1336,-0.000268562,1336,0.000213923,1336,0.000349575,
1334,0.000365431,1334,0.000160833,1334,-0.00028905,1334,0.000117383,1334,0.000165184,
1332,0.0003674,1332,0.000136648,1332,-0.000319057,1332,4.56135e-05,1332,1.79393e-05,
1330,0.000416653,1330,0.000189863,1330,-0.000337991,1330,0.000168809,1330,0.000175206,
1328,0.000440155,1328,0.000203097,1328,-0.000279582,1328,0.000194939,1328,0.000196571,
1326,0.000441632,1326,0.000207111,1326,-0.000272959,1326,0.000165417,1326,0.000131391,
1324,0.000469385,1324,0.000224334,1324,-0.000271873,1324,0.000173704,1324,3.15303e-05,
1322,0.000583136,1322,0.000255725,1322,-0.000216146,1322,0.000230446,1322,4.60795e-05,
1320,0.000501571,1320,0.000235756,1320,-0.000242691,1320,0.000172746,1320,4.31541e-05,
1318,0.00056297,1318,0.000266034,1318,-0.000199173,1318,0.000245468,1318,0.00012572,
1316,0.00054151,1316,0.000264195,1316,-0.000202899,1316,0.000222443,1316,8.93934e-05,
1314,0.000533553,1314,0.000238708,1314,-0.000206831,1314,0.000244432,1314,9.54262e-05,
1312,0.000517354,1312,0.000242852,1312,-0.000204865,1312,0.000263884,1312,0.000128439,
1310,0.000561182,1310,0.00025873,1310,-0.000185252,1310,0.000259092,1310,6.8422e-05,
1308,0.000580803,1308,0.000243448,1308,-0.000187891,1308,0.000262952,1308,2.50066e-05,
1306,0.000539177,1306,0.00019986,1306,-0.000200052,1306,0.000283311,1306,-2.78006e-05,
1304,0.000459823,1304,0.000150216,1304,-0.000256609,1304,0.000118885,1304,-0.000211903,
1302,0.000508983,1302,0.000213534,1302,-0.000204399,1302,0.000209131,1302,-0.000176403,
1300,0.00055338,1300,0.000243655,1300,-0.000159325,1300,0.000302583,1300,-6.96794e-05,
1298,0.000577771,1298,0.000247903,1298,-0.000125322,1298,0.000387168,1298,2.71552e-05,
1296,0.00060574,1296,0.000314862,1296,-7.96697e-05,1296,0.000459797,1296,0.000128413,
1294,0.000562374,1294,0.000301055,1294,-9.26101e-05,1294,0.000499135,1294,7.48169e-05,
1292,0.000549881,1292,0.000278933,1292,-9.55605e-05,1292,0.000517354,1292,6.50563e-05,
1290,0.000562296,1290,0.000295641,1290,-7.41828e-05,1290,0.000604003,1290,0.000117279,
1288,0.000582073,1288,0.000302531,1288,-4.91806e-05,1288,0.000648435,1288,0.0001512,
1286,0.000566081,1286,0.000293154,1286,-7.73921e-05,1286,0.000689243,1286,0.000144701,
1284,0.000583681,1284,0.000304552,1284,-2.40733e-05,1284,0.00073078,1284,0.000157907,
1282,0.00059029,1282,0.000343617,1282,3.88291e-06,1282,0.000755829,1282,0.000147549,
1280,0.000591094,1280,0.000345767,1280,1.4134e-05,1280,0.000813607,1280,0.000174248,
1278,0.000654995,1278,0.000377841,1278,2.66116e-05,1278,0.000857153,1278,0.000204055,
1276,0.000609654,1276,0.000343254,1276,1.07687e-05,1276,0.000827638,1276,0.000145892,
1274,0.000606051,1274,0.000347244,1274,2.61456e-05,1274,0.000859747,1274,0.000168887,
1272,0.000581192,1272,0.000344524,1272,9.50025e-06,1272,0.000858243,1272,0.000169638,
1270,0.000572224,1270,0.000391987,1270,2.2159e-05,1270,0.000877462,1270,0.000197166,
1268,0.000559264,1268,0.000382711,1268,2.92262e-05,1268,0.000876036,1268,0.000177951,
1266,0.00057212,1266,0.000371338,1266,1.80688e-05,1266,0.000821206,1266,0.000147756,
1264,0.000570021,1264,0.000433807,1264,3.48957e-05,1264,0.000849943,1264,0.000190666,
1262,0.000550348,1262,0.00044982,1262,4.2248e-05,1262,0.000812725,1262,0.000168473,
1260,0.000566418,1260,0.000478196,1260,5.20857e-05,1260,0.000798487,1260,0.000174947,
1258,0.0005638,1258,0.000481383,1258,5.66422e-05,1258,0.000762312,1258,0.000165624,
1256,0.000597471,1256,0.00052881,1256,7.1969e-05,1256,0.000768224,1256,0.000164821,
1254,0.000591768,1254,0.000542702,1254,8.79694e-05,1254,0.000756114,1254,0.000190459,
1252,0.000531142,1252,0.000514218,1252,5.47782e-05,1252,0.00070887,1252,0.000145141,
1250,0.000551022,1250,0.000544801,1250,6.82408e-05,1250,0.000714471,1250,0.000182016,
1248,0.000563463,1248,0.000572353,1248,7.90371e-05,1248,0.000714574,1248,0.000199368,
1246,0.000535989,1246,0.000581607,1246,4.76846e-05,1246,0.000673402,1246,0.000181809,
1244,0.000549,1244,0.00059913,1244,6.92505e-05,1244,0.000666272,1244,0.000197892,
1242,0.000510772,1242,0.000594697,1242,5.75483e-05,1242,0.000638403,1242,0.00020851,
1240,0.000506158,1240,0.000611961,1240,5.63056e-05,1240,0.000642706,1240,0.000211514,
1238,0.000500768,1238,0.000618001,1238,5.88946e-05,1238,0.000619634,1238,0.000219102,
1236,0.000480891,1236,0.000635629,1236,6.15612e-05,1236,0.000632388,1236,0.00021198,
1234,0.000503878,1234,0.000672805,1234,9.43387e-05,1234,0.000657509,1234,0.000207629,
1232,0.00048102,1232,0.000673635,1232,8.56392e-05,1232,0.000657691,1232,0.000202864,
1230,0.000488743,1230,0.00068652,1230,0.0001042812,1230,0.000695051,1230,0.000228271,
1228,0.000461559,1228,0.000702725,1228,0.000100579,1228,0.000696477,1228,0.000234746,
1226,0.000479595,1226,0.00071403,1226,0.000114172,1226,0.000748775,1226,0.000278104,
1224,0.000473479,1224,0.00071556,1224,0.000119636,1224,0.000769365,1224,0.000306857,
1222,0.000484286,1222,0.000738274,1222,0.000133514,1222,0.000821647,1222,0.000351518,
1220,0.000476952,1220,0.000747894,1220,0.000142344,1220,0.000871834,1220,0.00038424,
1218,0.000491697,1218,0.000747142,1218,0.000130148,1218,0.000928875,1218,0.000440336,
1216,0.000523263,1216,0.000763115,1216,0.000159021,1216,0.00103517,1216,0.000515411,
1214,0.000511471,1214,0.000773696,1214,0.000181783,1214,0.00112112,1214,0.000560145,
1212,0.000524585,1212,0.000792989,1212,0.000172797,1212,0.00123169,1212,0.00059182,
1210,0.00049289,1210,0.000768302,1210,0.000175024,1210,0.0013229,1210,0.000625493,
1208,0.00050621,1208,0.000794779,1208,0.000219698,1208,0.00144653,1208,0.000683565,
1206,0.000506184,1206,0.000791641,1206,0.000207552,1206,0.00154604,1206,0.000746934,
1204,0.00049714,1204,0.000765008,1204,0.000209649,1204,0.00163051,1204,0.000833784,
1202,0.000528499,1202,0.000813944,1202,0.000267433,1202,0.00178394,1202,0.000984757,
1200,0.000501986,1200,0.000795453,1200,0.000264661,1200,0.0019186,1200,0.00106724,
1198,0.000479517,1198,0.00071167,1198,0.000204521,1198,0.00210915,1198,0.00119937,
1196,0.000502815,1196,0.000792341,1196,0.000277457,1196,0.00244877,1196,0.00148583,
1194,0.000510305,1194,0.000867321,1194,0.000337555,1194,0.00280816,1194,0.00171034,
1192,0.000497632,1192,0.000832202,1192,0.000378333,1192,0.00316089,1192,0.00185246,
1190,0.000546045,1190,0.000829375,1190,0.000463399,1190,0.00351286,1190,0.00211118,
1188,0.000583188,1188,0.000897799,1188,0.000503696,1188,0.00376602,1188,0.00242586,
1186,0.000568725,1186,0.000904776,1186,0.00053871,1186,0.00394659,1186,0.00302128,
1184,0.000580985,1184,0.00095736,1184,0.000611339,1184,0.00408454,1184,0.00382109,
1182,0.000586998,1182,0.00101802,1182,0.00068105,1182,0.00424407,1182,0.00487029,
1180,0.000622097,1180,0.00108868,1180,0.000759822,1180,0.00441629,1180,0.00603005,
1178,0.00063314,1178,0.00115553,1178,0.000749268,1178,0.00438666,1178,0.00665402,
1176,0.00060237,1176,0.00111159,1176,0.000678354,1176,0.00404785,1176,0.00645866,
1174,0.000614709,1174,0.00106766,1174,0.000597445,1174,0.00358531,1174,0.0057261,
1172,0.000554184,1172,0.000985716,1172,0.000467804,1172,0.00309996,1172,0.00494197,
1170,0.000524171,1170,0.00094099,1170,0.000385043,1170,0.00276056,1170,0.00437469,
1168,0.000552525,1168,0.000927033,1168,0.000317711,1168,0.00243158,1168,0.00386204,
1166,0.000527799,1166,0.000891806,1166,0.000256528,1166,0.00214201,1166,0.00334695,
1164,0.00047138,1164,0.000836715,1164,0.000172279,1164,0.00182298,1164,0.00288774,
1162,0.00054379,1162,0.000877151,1162,0.000212395,1162,0.00166255,1162,0.00260548,
1160,0.000507662,1160,0.000847038,1160,0.000136182,1160,0.00141578,1160,0.00218748,
1158,0.000463321,1158,0.00082201,1158,9.17237e-05,1158,0.00116532,1158,0.00182615,
1156,0.000454847,1156,0.000821569,1156,9.61252e-05,1156,0.000980164,1156,0.00139272,
1154,0.000486799,1154,0.000873312,1154,0.000168809,1154,0.000792393,1154,0.00076825,
1152,0.0005144,1152,0.000960032,1152,0.000234176,1152,0.000664665,1152,-2.52122e-05,
1150,0.000455936,1150,0.000816952,1150,9.26299e-05,1150,0.000198824,1150,-0.00106881,
1148,0.000478196,1148,0.00067602,1148,-7.50628e-05,1148,-0.000291068,1148,-0.00198114,
1146,0.000392816,1146,0.000353591,1146,-0.000322885,1146,-0.000848128,1146,-0.00315756,
1144,0.000510979,1144,0.00027023,1144,-0.000477334,1144,-0.00156493,1144,-0.00463307,
1142,0.000413129,1142,-7.00935e-05,1142,-0.000741879,1142,-0.0027377,1142,-0.00692526,
1140,0.000381856,1140,-0.000275495,1140,-0.000991232,1140,-0.00395553,1140,-0.00913968,
1138,0.000113188,1138,-0.000554434,1138,-0.00141103,1138,-0.00490528,1138,-0.0107193,
1136,-4.57122e-05,1136,-0.000665226,1136,-0.00160414,1136,-0.00523042,1136,-0.010714,
1134,-0.000122061,1134,-0.000594763,1134,-0.00157778,1134,-0.00490672,1134,-0.00926077,
1132,-8.32413e-05,1132,-0.000376736,1132,-0.00142671,1132,-0.00425016,1132,-0.00771101,
1130,-5.08888e-05,1130,-0.000320402,1130,-0.00125232,1130,-0.00354276,1130,-0.00614034,
1128,-4.07944e-05,1128,-4.39004e-05,1128,-0.000940919,1128,-0.00265589,1128,-0.00430507,
1126,0.000263055,1126,0.000372452,1126,-0.000709421,1126,-0.00190929,1126,-0.00293819,
1124,0.000230757,1124,0.000385069,1124,-0.000579304,1124,-0.00133934,1124,-0.00214458,
1122,0.000329628,1122,0.000568362,1122,-0.000397685,1122,-0.000889927,1122,-0.00135297,
1120,0.000326933,1120,0.000554547,1120,-0.000391892,1120,-0.000698566,1120,-0.00102961,
1118,0.000306391,1118,0.000621786,1118,-0.000342233,1118,-0.000555416,1118,-0.000871275,
1116,0.000307971,1116,0.00068512,1116,-0.000300898,1116,-0.00032304,1116,-0.000449407,
1114,0.000351777,1114,0.000762623,1114,-0.000224011,1114,-0.000112693,1114,-0.000135414,
1112,0.000354653,1112,0.000808705,1112,-0.000196999,1112,-4.22438e-05,1112,-6.39854e-05,
1110,0.000369964,1110,0.000816563,1110,-0.000187115,1110,1.74993e-05,1110,-6.11901e-05,
1108,0.000395536,1108,0.000902001,1108,-0.000112538,1108,6.01632e-05,1108,-5.43602e-06,
1106,0.000328255,1106,0.000868825,1106,-0.00019141,1106,6.86291e-05,1106,-1.44441e-05,
1104,0.000324861,1104,0.000871185,1104,-0.000185045,1104,8.22993e-05,1104,-2.21061e-05,
1102,0.000359316,1102,0.00090047,1102,-0.000187581,1102,8.42152e-05,1102,-5.47713e-05,
1100,0.000364109,1100,0.000941249,1100,-0.000176713,1100,0.000123701,1100,-4.57122e-05,
1098,0.000354446,1098,0.000970202,1098,-0.000188823,1098,0.000133022,1098,-1.6722e-05,
1096,0.000317918,1096,0.000983693,1096,-0.000200311,1096,0.000123934,1096,2.56272e-06,
1094,0.000330923,1094,0.0010311,1094,-0.000158393,1094,0.000183311,1094,1.69039e-05,
1092,0.000308929,1092,0.00103831,1092,-0.000206003,1092,0.000198332,1092,1.66191e-05,
1090,0.000307867,1090,0.00107866,1090,-0.000212368,1090,0.000186471,1090,1.86124e-05,
1088,0.000320068,1088,0.00113165,1088,-0.00019348,1088,0.000227002,1088,3.56206e-05,
1086,0.000324161,1086,0.00119979,1086,-0.000185045,1086,0.000265878,1086,6.61178e-05,
1084,0.000331441,1084,0.00132386,1084,-0.000155702,1084,0.000299138,1084,6.13023e-05,
1082,0.000337529,1082,0.00129968,1082,-0.00015622,1082,0.00032556,1082,0.000106819,
1080,0.000360664,1080,0.00137244,1080,-0.00013764,1080,0.000348902,1080,0.000148222,
1078,0.000378281,1078,0.00145175,1078,-0.000126667,1078,0.0004059,1078,0.000178443,
1076,0.000373073,1076,0.00149116,1076,-0.000117248,1076,0.000444405,1076,0.000217626,
1074,0.000369006,1074,0.00151851,1074,-9.72168e-05,1074,0.00041655,1074,0.00019885,
1072,0.000358643,1072,0.00158278,1072,-0.000107828,1072,0.000477056,1072,0.000243914,
1070,0.000393801,1070,0.00163085,1070,-0.000107569,1070,0.000488691,1070,0.000264402,
1068,0.000376338,1068,0.0016606,1068,-0.000119836,1068,0.000501597,1068,0.000251426,
1066,0.000402713,1066,0.00172265,1066,-0.000117351,1066,0.000528343,1066,0.000280306,
1064,0.000341104,1064,0.0017514,1064,-0.000157617,1064,0.000517717,1064,0.000250856,
1062,0.000397195,1062,0.00180692,1062,-0.000129566,1062,0.000561493,1062,0.000266241,
1060,0.00042181,1060,0.00186793,1060,-8.86245e-05,1060,0.000594049,1060,0.00032284,
1058,0.000355068,1058,0.00189255,1058,-0.000139037,1058,0.000560871,1058,0.000297402,
1056,0.000367685,1056,0.00197862,1056,-0.000118697,1056,0.000647917,1056,0.000332659,
1054,0.000384292,1054,0.00199698,1054,-0.000142091,1054,0.000630418,1054,0.000346337,
1052,0.000355897,1052,0.00202987,1052,-0.000168226,1052,0.000605947,1052,0.000352969,
1050,0.000385665,1050,0.00211313,1050,-0.000123924,1050,0.000708274,1050,0.000419763,
1048,0.00036341,1048,0.00218004,1048,-0.000122216,1048,0.000755699,1048,0.000450183,
1046,0.000345741,1046,0.00219999,1046,-0.00020295,1046,0.000704696,1046,0.000434169,
1044,0.00033569,1044,0.0022773,1044,-0.000148664,1044,0.000762623,1044,0.000451012,
1042,0.000364964,1042,0.00233632,1042,-0.000172625,1042,0.000765371,1042,0.000479051,
1040,0.000362684,1040,0.00240428,1040,-0.000117041,1040,0.00078744,1040,0.000516784,
1038,0.000353513,1038,0.00244796,1038,-0.000151872,1038,0.000748387,1038,0.000533501,
1036,0.000330767,1036,0.00249375,1036,-0.000170607,1036,0.000768924,1036,0.000571628,
1034,0.000370923,1034,0.00255536,1034,-0.000158393,1034,0.000765449,1034,0.00059029,
1032,0.000325534,1032,0.00259986,1032,-0.000170503,1032,0.000759874,1032,0.00059493,
1030,0.000368358,1030,0.00268101,1030,-0.0001468,1030,0.000795375,1030,0.000647761,
1028,0.00034284,1028,0.00273443,1028,-0.000178628,1028,0.000774681,1028,0.000651546,
1026,0.000361622,1026,0.00282999,1026,-0.000174333,1026,0.00078202,1026,0.00072422,
1024,0.000381494,1024,0.00289725,1024,-0.000175161,1024,0.000808472,1024,0.000726994,
1022,0.000364887,1022,0.00296352,1022,-0.000189703,1022,0.000804711,1022,0.00075544,
1020,0.000384162,1020,0.00306382,1020,-0.000188719,1020,0.00082494,1020,0.000831735,
1018,0.00038481,1018,0.00313067,1018,-0.000192135,1018,0.000854118,1018,0.000849087,
1016,0.000358228,1016,0.00321117,1016,-0.000160722,1016,0.000823618,1016,0.000861744,
1014,0.000374472,1014,0.00327764,1014,-0.000177283,1014,0.000843121,1014,0.000912714,
1012,0.000330975,1012,0.00336085,1012,-0.000204555,1012,0.000842603,1012,0.000968853,
1010,0.000375794,1010,0.00344481,1010,-0.000205072,1010,0.000890432,1010,0.0010497,
1008,0.000346415,1008,0.0035132,1008,-0.000179611,1008,0.000828883,1008,0.00107505,
1006,0.000360197,1006,0.00359471,1006,-0.000170348,1006,0.000844392,1006,0.00112049,
1004,0.000387245,1004,0.00364279,1004,-0.000171073,1004,0.000859877,1004,0.00116153,
1002,0.00033955,1002,0.00375625,1002,-0.000195033,1002,0.000807927,1002,0.00111318,
1000,0.000371726,1000,0.00380435,1000,-0.000159791,1000,0.000825148,1000,0.00116719,
998,0.000351259,998,0.00388215,998,-0.000175937,998,0.000826548,998,0.0011846,
996,0.000364265,996,0.00396597,996,-0.000186753,996,0.000868358,996,0.00120508,
994,0.000350482,994,0.00402392,994,-0.000175575,994,0.000849891,994,0.00121477,
992,0.000376675,992,0.00411051,992,-0.000156634,992,0.000867087,992,0.0012582,
990,0.000385639,990,0.00419799,990,-0.000148301,990,0.00090296,990,0.0013022,
988,0.000353151,988,0.00423466,988,-0.000182561,988,0.000884959,988,0.00129075,
986,0.000356363,986,0.00431557,986,-0.000163258,986,0.000909394,986,0.00133471,
984,0.000341311,984,0.00436172,984,-0.000191928,984,0.000887708,984,0.00134216,
982,0.000320146,982,0.00442952,982,-0.000177283,982,0.000866153,982,0.00135429,
980,0.000310302,980,0.0045027,980,-0.000191255,980,0.000884907,980,0.0013613,
978,0.000277923,978,0.00453568,978,-0.000227789,978,0.000866517,978,0.00138452,
976,0.00028186,976,0.00463486,976,-0.000199328,976,0.000857101,976,0.00141547,
974,0.00025443,974,0.00465448,974,-0.000251384,974,0.000860784,974,0.00141002,
972,0.000251192,972,0.0047451,972,-0.000249159,972,0.000866828,972,0.00146495,
970,0.000224904,970,0.00481713,970,-0.000237723,970,0.000851732,970,0.00148495,
968,0.000203848,968,0.00484537,968,-0.000256402,968,0.000819313,968,0.00147435,
966,0.000203589,966,0.00497124,966,-0.00022101,966,0.000868721,966,0.00155301,
964,0.000188206,964,0.00503577,964,-0.000206521,964,0.000879408,964,0.0016006,
962,0.000169664,962,0.00512927,962,-0.000195188,962,0.000915386,962,0.00163578,
960,0.000199756,960,0.00526937,960,-0.000153114,960,0.0009935,960,0.0017351,
958,0.000167074,958,0.00531955,958,-0.000156478,958,0.000972122,958,0.0017843,
956,0.000225344,956,0.0054198,956,-0.000113314,956,0.00103553,956,0.00188054,
954,0.000179738,954,0.00544226,954,-0.000187219,954,0.000967426,954,0.00188501,
952,0.000219594,952,0.00553451,952,-0.000147732,952,0.000982577,952,0.0019484,
950,0.000221381,950,0.00562618,950,-0.000165587,950,0.000963456,950,0.00197898,
948,0.000272639,948,0.00572508,948,-0.000115488,948,0.000977803,948,0.00204907,
946,0.000261838,946,0.00583657,946,-0.000104204,946,0.000972433,946,0.0021009,
944,0.000308308,944,0.00589965,944,-7.85827e-05,944,0.000983952,944,0.0021522,
942,0.000317012,942,0.00600291,942,-5.45642e-05,942,0.000975027,942,0.00220574,
940,0.000304215,940,0.0060809,940,-7.1957e-05,940,0.000963768,940,0.00227412,
938,0.000312038,938,0.00615459,938,-8.52082e-05,938,0.000935438,938,0.00229687,
936,0.000346026,936,0.00629235,936,-5.23383e-05,936,0.000969086,936,0.00237807,
934,0.000316623,934,0.00633705,934,-4.41592e-05,934,0.000934556,934,0.00245608,
932,0.000325768,932,0.00644946,932,-4.84041e-05,932,0.000922649,932,0.00251747,
930,0.000321856,930,0.00655399,930,-6.26913e-05,930,0.000937332,930,0.00258225,
928,0.00031209,928,0.00662411,928,-6.11901e-05,928,0.000916501,928,0.00260241,
926,0.000349161,926,0.00679023,926,1.06133e-06,926,0.000953546,926,0.00273368,
924,0.000316519,924,0.00685468,924,-8.23166e-06,924,0.000925658,924,0.00279422,
922,0.000327633,922,0.00696896,922,-1.81716e-05,922,0.000929887,922,0.00287119,
920,0.000322814,920,0.00710497,920,1.65671e-06,920,0.000936606,920,0.00295615,
918,0.000310251,918,0.00722037,918,-1.06649e-05,918,0.000941275,918,0.00303085,
916,0.000334109,916,0.00738171,916,4.15231e-05,916,0.000995731,916,0.00315409,
914,0.000305199,914,0.00749466,914,1.18042e-05,914,0.000959513,914,0.00324956,
912,0.000294656,912,0.00763671,912,4.51734e-05,912,0.000984341,912,0.00334408,
910,0.000287429,910,0.00777763,910,2.69222e-05,910,0.00101657,910,0.00344794,
908,0.00027352,908,0.00795178,908,6.749e-05,908,0.0010024,908,0.00363848,
906,0.00027383,906,0.00808405,906,7.38589e-05,906,0.00101553,906,0.00381783,
904,0.000293672,904,0.00824041,904,6.85773e-05,904,0.000994538,904,0.00397757,
902,0.000298879,902,0.00844104,902,9.91028e-05,902,0.000992929,902,0.00417114,
900,0.000263547,900,0.0085768,900,5.72635e-05,900,0.000947112,900,0.00427583,
898,0.000778208,898,0.00859246,898,-0.000887292,898,0.000135612,898,0.00407252,
896,0.000613698,896,0.00875244,896,0.00159302,896,0.00188709,896,0.00505454,
894,0.000153738,894,0.0105142,894,0.000463891,894,0.000489676,894,0.00397441,
892,0.00128953,892,0.0101658,892,0.00116654,892,0.000546071,892,0.00624526,
890,1.07169e-05,890,0.00944028,890,0.000643095,890,-6.45548e-05,890,0.00528384,
888,0.000910976,888,0.0095279,888,0.000638973,888,0.00050564,888,0.00581933,
886,0.000105705,886,0.0104142,886,0.000445208,886,0.000758915,886,0.00568319,
884,0.000544697,884,0.00964294,884,0.000190122,884,0.00028028,884,0.00567123,
882,0.000193877,882,0.0109097,882,-0.000589748,882,-0.000121181,882,0.00473437,
880,-0.000433012,880,0.0113438,880,-9.19372e-05,880,0.000137424,880,0.00597906,
878,0.000531376,878,0.0104487,878,0.0005257,878,0.000722638,878,0.0058817,
876,-0.000449665,876,0.0101887,876,0.000105239,876,0.00084211,876,0.00525363,
874,0.001337,874,0.0117497,874,0.000889576,874,0.000908745,874,0.00591382,
872,0.00138976,872,0.0124916,872,0.000666298,872,0.000177951,872,0.0055601,
870,0.000314214,870,0.0117708,870,0.000287352,870,-0.000100788,870,0.00585318,
868,0.000281601,868,0.0126658,868,-0.00021154,868,8.03575e-05,868,0.00602751,
866,0.000582073,866,0.0122824,866,0.000539747,866,0.000143691,866,0.00592964,
864,0.00124057,864,0.0131483,864,0.00125718,864,0.001062,864,0.00743367,
862,0.000198358,862,0.0133967,862,-4.97008e-06,862,0.000350145,862,0.00668391,
860,0.000329446,860,0.0133898,860,0.000589539,860,0.000595034,860,0.00712042,
858,0.000761067,858,0.0136786,858,0.000599363,858,0.000640995,858,0.00766129,
856,0.000256347,856,0.0137111,856,0.000573027,856,0.000168162,856,0.0076448,
854,0.000283596,854,0.0138349,854,0.000364809,854,0.000386675,854,0.00801807,
852,0.000596874,852,0.0146783,852,0.000611106,852,0.000815863,852,0.00825094,
850,0.000449043,850,0.0144588,850,0.000712604,850,0.000575619,850,0.00818789,
848,0.000509528,848,0.0150322,848,0.000365897,848,0.000730936,848,0.008419,
846,0.000601281,846,0.0152131,846,0.000749242,846,0.00081563,846,0.00883549,
844,0.000629926,844,0.0153405,844,0.000816408,844,0.000623056,844,0.00871185,
842,0.000385613,842,0.0156825,842,0.000658468,842,0.000660646,842,0.00924397,
840,0.000683072,840,0.0160327,840,0.000890587,840,0.000781034,840,0.00929676,
838,0.000576164,838,0.0161649,838,0.000716312,838,0.000770921,838,0.00941046,
836,0.000510461,836,0.0162575,836,0.000889264,836,0.000766875,836,0.00952529,
834,0.0004194,834,0.0164868,834,0.000854689,834,0.000807746,834,0.00957337,
832,0.000449276,832,0.0168228,832,0.000865505,832,0.000643069,832,0.00968534,
830,0.00041129,830,0.0170744,830,0.000793949,830,0.000670835,830,0.0100228,
828,0.00052824,828,0.0173517,828,0.000774759,828,0.00078412,828,0.0100833,
826,0.000646854,826,0.0175612,826,0.00088929,826,0.000898317,826,0.010169,
824,0.000508931,824,0.0176488,824,0.000862548,824,0.000765553,824,0.0103765,
822,0.000404942,822,0.0177544,822,0.000764127,822,0.000737625,822,0.0101695,
820,0.000444975,820,0.0179836,820,0.000753365,820,0.000750046,820,0.0103098,
818,0.000508828,818,0.0182182,818,0.000800381,818,0.000734021,818,0.0104457,
816,0.000624741,816,0.0184054,816,0.000949188,816,0.000838738,816,0.0107261,
814,0.000432744,814,0.0185026,814,0.000817523,814,0.000668502,814,0.0105855,
812,0.000518521,812,0.0186579,812,0.000884751,812,0.000724531,812,0.0107087,
810,0.000576656,810,0.018919,810,0.000900496,810,0.000876114,810,0.0109489,
808,0.000537207,808,0.019019,808,0.00086426,808,0.000776133,808,0.0109224,
806,0.000536948,806,0.0191547,806,0.000878085,806,0.000770091,806,0.0110112,
804,0.000525752,804,0.019446,804,0.00100476,804,0.00090903,804,0.0111143,
802,0.000591923,802,0.0196068,802,0.000963223,802,0.0008792,802,0.0111015,
800,0.000472158,800,0.0196113,800,0.000829324,800,0.000684913,800,0.0110588,
798,0.000473609,798,0.0196962,798,0.000950718,798,0.000771362,798,0.0111376,
796,0.000501597,796,0.0199019,796,0.000967556,796,0.000848283,796,0.0112124,
794,0.000574323,794,0.0200043,794,0.000891806,794,0.000739829,794,0.011142,
792,0.000618675,792,0.0203546,792,0.00101187,792,0.000868851,792,0.0113632,
790,0.000504059,790,0.0204311,790,0.000982863,790,0.000764256,790,0.0113457,
788,0.000652895,788,0.0207517,788,0.00105035,788,0.000887786,788,0.0116009,
786,0.000570539,786,0.0208952,786,0.00106099,786,0.000885607,786,0.0116689,
784,0.000504966,784,0.0210481,784,0.0010559,784,0.00081397,784,0.0116364,
782,0.000547911,782,0.0212724,782,0.00098608,782,0.000834744,782,0.0118582,
780,0.000455392,780,0.0214419,780,0.000990101,780,0.000835548,780,0.011865,
778,0.000479232,778,0.0216629,778,0.000950718,778,0.000857361,778,0.0119543,
776,0.000649136,776,0.0220653,776,0.00117339,776,0.00104423,776,0.0121829,
774,0.000541484,774,0.0222208,774,0.00107088,774,0.000942209,774,0.0122331,
772,0.000490894,772,0.0224575,772,0.00108146,772,0.00100582,772,0.0123343,
770,0.000575542,770,0.0228408,770,0.00111704,770,0.00100678,770,0.0125193,
768,0.000577226,768,0.0230003,768,0.00108761,768,0.00100704,768,0.0126215,
766,0.000571368,766,0.0232924,766,0.00112156,766,0.000995887,766,0.0126881,
764,0.00047804,764,0.0234822,764,0.00106164,764,0.00101042,764,0.0128603,
762,0.00049885,762,0.0238842,762,0.00117282,762,0.00101862,762,0.0130902,
760,0.000511705,760,0.0241665,760,0.00109696,760,0.00102832,760,0.0132063,
758,0.000536274,758,0.024491,758,0.00118048,758,0.00107409,758,0.013364,
756,0.00057987,756,0.024836,756,0.0013062,756,0.00107334,756,0.0135362,
754,0.00057733,754,0.0251649,754,0.00120277,754,0.00110651,754,0.0137619,
752,0.000650821,752,0.0255136,752,0.00130031,752,0.00122053,752,0.0139629,
750,0.000587413,750,0.0258101,750,0.0013028,750,0.00121856,750,0.0141707,
748,0.000587958,748,0.0262095,748,0.00131874,748,0.00123283,748,0.0143309,
746,0.000609732,746,0.0265229,746,0.00128128,746,0.00123307,746,0.0145302,
744,0.000510072,744,0.0268121,744,0.00136875,744,0.00127813,744,0.014723,
742,0.000681491,742,0.0272047,742,0.00141448,742,0.00135876,742,0.0150415,
740,0.00067322,740,0.0276754,740,0.00147001,740,0.00134037,740,0.0152256,
738,0.000707055,738,0.0279865,738,0.00145703,738,0.0013795,738,0.0155,
736,0.000540784,736,0.0282975,736,0.00145942,736,0.00135265,736,0.0155319,
734,0.000690358,734,0.0286733,734,0.00149014,734,0.00142383,734,0.0158164,
732,0.000690747,732,0.0291278,732,0.00155189,732,0.00146469,732,0.0160526,
730,0.000622434,730,0.0294497,730,0.00156327,730,0.00143822,730,0.0161419,
728,0.000594075,728,0.0297758,728,0.00149822,728,0.00142988,728,0.0163621,
726,0.000622771,726,0.0301165,726,0.00165207,726,0.00150643,726,0.0165759,
724,0.000661346,724,0.0305071,724,0.00161653,724,0.00154129,724,0.0168167,
722,0.000633451,722,0.0307597,722,0.00157927,722,0.00155137,722,0.0169407,
720,0.000604781,720,0.0311033,720,0.00159969,720,0.00151991,720,0.0171896,
718,0.000616212,718,0.0314812,718,0.00166348,718,0.00152326,718,0.0173594,
716,0.000691473,716,0.0318217,716,0.00163825,716,0.00156839,716,0.0175526,
714,0.000706614,714,0.0321552,714,0.00174303,714,0.0015932,714,0.0177323,
712,0.000698136,712,0.0323845,712,0.00176328,712,0.00159299,712,0.0178439,
710,0.000681646,710,0.0325656,710,0.00169144,710,0.00151874,710,0.0179846,
708,0.000721497,708,0.03284,708,0.00175369,708,0.00161832,708,0.0181833,
706,0.000672494,706,0.0329656,706,0.00169895,706,0.00161892,706,0.0182537,
704,0.000761741,704,0.0331733,704,0.0018057,704,0.0017048,704,0.018516,
702,0.000671276,702,0.0331684,702,0.00170475,702,0.0016165,702,0.0185066,
700,0.00073358,700,0.0333241,700,0.00178324,700,0.00167621,700,0.0187042,
698,0.000778441,698,0.0333195,698,0.00183343,698,0.00174173,698,0.0187769,
696,0.000716156,696,0.0332884,696,0.00179213,696,0.00171488,696,0.0188244,
694,0.000866983,694,0.0332467,694,0.00185145,694,0.00183164,694,0.0189393,
692,0.000734255,692,0.0330224,692,0.00177529,692,0.0017246,692,0.0188233,
690,0.000824837,690,0.0328935,690,0.001832,690,0.00178846,690,0.0188403,
688,0.000771595,688,0.0326257,688,0.00178854,688,0.0017737,688,0.0188244,
686,0.000826756,686,0.032412,686,0.0018529,686,0.00190779,686,0.0188486,
684,0.000915827,684,0.032221,684,0.00192349,684,0.00195087,684,0.0188255,
682,0.000947865,682,0.0319252,682,0.00191676,682,0.00196486,682,0.0187665,
680,0.000984912,680,0.031659,680,0.00191845,680,0.00202277,680,0.0187425,
678,0.00100707,678,0.0313783,678,0.00193595,678,0.00201648,678,0.018662,
676,0.00110869,676,0.0311331,676,0.00207302,676,0.00216604,676,0.0186576,
674,0.00106011,674,0.0306818,674,0.00200384,674,0.00206915,674,0.0184455,
672,0.0010974,672,0.0303762,672,0.00201456,672,0.00217697,672,0.0183821,
670,0.00104407,670,0.0299542,670,0.00195607,670,0.00215225,670,0.018207,
668,0.00106288,668,0.0297038,668,0.00201227,668,0.00220205,668,0.0181229,
666,0.00102393,666,0.0293167,666,0.00195383,666,0.00216037,666,0.0179306,
664,0.000975909,664,0.0289607,664,0.00192242,664,0.00213046,664,0.0177717,
662,0.000976766,662,0.0286903,662,0.00194112,662,0.0021432,662,0.0177245,
660,0.000969839,660,0.0283984,660,0.00196468,660,0.00215012,660,0.0175869,
658,0.000961796,658,0.0281613,658,0.00198122,658,0.00218849,658,0.0175054,
656,0.000950589,656,0.0279396,656,0.00190594,656,0.00219156,656,0.0174241,
654,0.00107386,654,0.0277318,654,0.00201554,654,0.00228638,654,0.0173806,
652,0.00103968,652,0.0274929,652,0.00192606,652,0.00231709,652,0.0173273,
650,0.00100987,650,0.0273304,650,0.00199908,650,0.0023503,650,0.0172735,
648,0.00108894,648,0.0271508,648,0.00198285,648,0.00238431,648,0.0172402,
646,0.00106792,646,0.0270277,646,0.00200371,646,0.00242526,646,0.0172182,
644,0.00109722,644,0.0268308,644,0.00207089,644,0.00245759,644,0.0172467,
642,0.00115953,642,0.0267644,642,0.002075,642,0.00255746,642,0.0172625,
640,0.001196,640,0.0266884,640,0.00215356,640,0.00265278,640,0.0173084,
638,0.00124786,638,0.0265455,638,0.00217876,638,0.00268804,638,0.01727,
636,0.00123024,636,0.0264353,636,0.00219643,636,0.00271998,636,0.0172375,
634,0.00126326,634,0.0263434,634,0.00222773,634,0.00276254,634,0.0172724,
632,0.00129724,632,0.0262606,632,0.00224626,632,0.00283763,632,0.017308,
630,0.00136953,630,0.0261884,630,0.00227334,630,0.00292336,630,0.0173551,
628,0.00139989,628,0.0261046,628,0.00235925,628,0.00299154,628,0.0173768,
626,0.00148599,626,0.0260728,626,0.00240589,626,0.00311646,626,0.0175255,
624,0.00151596,624,0.0260508,624,0.00241157,624,0.00319122,624,0.0175626,
622,0.00164901,622,0.0260615,622,0.00248966,622,0.00334226,622,0.0176556,
620,0.00166741,620,0.0259676,620,0.00256048,620,0.00336211,620,0.0176842,
618,0.0018111,618,0.0259342,618,0.00263408,618,0.00352904,618,0.0177763,
616,0.00186918,616,0.0258968,616,0.00262384,616,0.00357422,616,0.017751,
614,0.00195836,614,0.0259023,614,0.00270802,614,0.0037515,614,0.017892,
612,0.00210135,612,0.0259042,612,0.00280277,612,0.00387659,612,0.0180079,
610,0.00231438,610,0.0259782,610,0.00293501,610,0.00404639,610,0.0181398,
608,0.0024741,608,0.0260073,608,0.00300244,608,0.00419365,608,0.0182231,
606,0.00266999,606,0.026037,606,0.00316845,606,0.00443729,606,0.0183851,
604,0.0028375,604,0.0260554,604,0.00322559,604,0.00455253,604,0.0184892,
602,0.00308943,602,0.0261111,602,0.00339367,602,0.00479333,602,0.0186515,
600,0.00341718,600,0.0262037,600,0.00345139,600,0.00501969,600,0.0187127,
598,0.00367597,598,0.0262894,598,0.00361084,598,0.00526811,598,0.0189352,
596,0.00406818,596,0.0264012,596,0.00380709,596,0.0055665,596,0.0190914,
594,0.00449917,594,0.0264349,594,0.00396062,594,0.00587902,594,0.0191886,
592,0.00509236,592,0.0265837,592,0.00415802,592,0.00628583,592,0.0193922,
590,0.00573576,590,0.0267489,590,0.0044386,590,0.00674868,590,0.0196064,
588,0.00652829,588,0.0268648,588,0.00471534,588,0.00726206,588,0.0198308,
586,0.00745597,586,0.0269678,586,0.00504682,586,0.00789695,586,0.0199635,
584,0.00860463,584,0.0270783,584,0.00535485,584,0.0086059,584,0.0202083,
582,0.0100055,582,0.0273119,582,0.00581555,582,0.00946636,582,0.0204592,
580,0.0116426,580,0.0274597,580,0.00625802,580,0.0104328,580,0.0206575,
578,0.0136659,578,0.027611,578,0.0068313,578,0.0116411,578,0.0208848,
576,0.0160671,576,0.027753,576,0.00744502,576,0.0129995,576,0.0210533,
574,0.0189387,574,0.0279239,574,0.0081019,574,0.0146274,574,0.0212664,
572,0.0223901,572,0.028028,572,0.0088584,572,0.0164715,572,0.0214423,
570,0.0265727,570,0.0282171,570,0.00978194,570,0.0187029,570,0.021731,
568,0.0316472,568,0.0283468,568,0.0108193,568,0.0213287,568,0.0219737,
566,0.0376981,566,0.0285836,566,0.0119332,566,0.0244294,566,0.0221819,
564,0.0449491,564,0.0287825,564,0.0132454,564,0.0280791,564,0.0224161,
562,0.0533729,562,0.0289146,562,0.0146946,562,0.0322865,562,0.0226205,
560,0.0633886,560,0.0291164,560,0.0163333,560,0.0371742,560,0.02286,
558,0.0749381,558,0.0292499,558,0.0181113,558,0.0427388,558,0.0230758,
556,0.0884264,556,0.0294441,556,0.0201783,556,0.0491042,556,0.0233065,
554,0.10415,554,0.0296375,554,0.0225071,554,0.0564674,554,0.0235553,
552,0.121762,552,0.0298893,552,0.0250756,552,0.064553,552,0.0238204,
550,0.141713,550,0.030081,550,0.0279534,550,0.0735846,550,0.0241265,
548,0.163859,548,0.0303562,548,0.0311757,548,0.0835661,548,0.024384,
546,0.187876,546,0.0305279,546,0.0345294,546,0.0941547,546,0.0246047,
544,0.214389,544,0.030805,544,0.0384768,544,0.105775,544,0.0249323,
542,0.242449,542,0.0310413,542,0.0426938,542,0.117914,542,0.0252147,
540,0.271669,540,0.0313325,540,0.0472784,540,0.130496,540,0.0254678,
538,0.302048,538,0.0315339,538,0.0521011,538,0.143371,538,0.0257535,
536,0.33301,536,0.031827,536,0.0574884,536,0.156553,536,0.0260542,
534,0.364545,534,0.0320113,534,0.0631836,534,0.169859,534,0.0262735,
532,0.396144,532,0.0323431,532,0.0693071,532,0.183152,532,0.0266019,
530,0.427482,530,0.0326235,530,0.0757091,530,0.196429,530,0.0268827,
528,0.4584,528,0.0329082,528,0.0826975,528,0.20951,528,0.0271794,
526,0.488249,526,0.0332006,526,0.0898957,526,0.22225,526,0.0274428,
524,0.517397,524,0.0336065,524,0.0974464,524,0.234752,524,0.0277969,
522,0.546108,522,0.0338308,522,0.105354,522,0.247173,522,0.0280405,
520,0.573764,520,0.0341636,520,0.113554,520,0.259342,520,0.028383,
518,0.60051,518,0.034535,518,0.121946,518,0.271233,518,0.0286429,
516,0.626858,516,0.0348044,516,0.130491,516,0.283055,516,0.0288919,
514,0.65256,514,0.0352112,514,0.139239,514,0.29472,514,0.0292505,
512,0.67807,512,0.0355486,512,0.148079,512,0.306336,512,0.0295642,
510,0.70328,510,0.0359044,510,0.157046,510,0.317868,510,0.0298347,
508,0.728411,508,0.0363698,508,0.16617,508,0.329462,508,0.0301597,
506,0.752759,506,0.0367133,506,0.175145,506,0.340666,506,0.0304645,
504,0.776706,504,0.0371093,504,0.184114,504,0.351657,504,0.0308135,
502,0.800141,502,0.0375978,502,0.193137,502,0.362528,502,0.031133,
500,0.822508,500,0.0380745,500,0.201966,500,0.37274,500,0.0314301,
498,0.843649,498,0.0386164,498,0.21072,498,0.382486,498,0.0318113,
496,0.863417,496,0.039145,496,0.219379,496,0.391535,496,0.0320819,
494,0.881309,494,0.0397075,494,0.227858,494,0.399865,494,0.0324989,
492,0.897437,492,0.0403345,492,0.23626,492,0.407488,492,0.0328598,
490,0.911527,490,0.0408404,490,0.244586,490,0.414337,490,0.0332286,
488,0.923557,488,0.0414361,488,0.252764,488,0.420427,488,0.0336041,
486,0.933551,486,0.0420163,486,0.260953,486,0.42571,486,0.0339721,
484,0.941282,484,0.0424739,484,0.268958,484,0.430327,484,0.0343059,
482,0.947222,482,0.0429635,482,0.276885,482,0.434281,482,0.0346177,
480,0.951279,480,0.0433888,480,0.284671,480,0.437557,480,0.0349834,
478,0.953584,478,0.0437556,478,0.292422,478,0.440308,478,0.0352477,
476,0.954446,476,0.0441277,476,0.300097,476,0.442575,476,0.0355801,
474,0.953806,474,0.0444099,474,0.307362,474,0.444375,474,0.0358366,
472,0.952,472,0.0447553,472,0.314525,472,0.44565,472,0.0362205,
470,0.948824,470,0.0451928,470,0.321421,470,0.446512,470,0.0365811,
468,0.94463,468,0.0454786,468,0.327802,468,0.446846,468,0.0368913,
466,0.939084,466,0.045921,466,0.333786,466,0.446556,466,0.0372794,
464,0.932477,464,0.0463795,464,0.339094,464,0.445841,464,0.0376823,
462,0.924656,462,0.0467752,462,0.343677,462,0.4444,462,0.0380321,
460,0.915829,460,0.047258,460,0.347477,460,0.442398,460,0.038455,
458,0.905781,458,0.0478043,458,0.3506,458,0.439778,458,0.0389181,
456,0.894539,456,0.0483503,456,0.352904,456,0.436554,456,0.0393398,
454,0.882511,454,0.0488498,454,0.354433,454,0.432863,454,0.0397886,
452,0.869368,452,0.0492897,452,0.355261,452,0.428577,452,0.0402024,
450,0.855633,450,0.0497641,450,0.355629,450,0.424044,450,0.0406789,
448,0.841247,448,0.0502166,448,0.355656,448,0.419149,448,0.0411373,
446,0.826144,446,0.0506248,446,0.355387,446,0.414031,446,0.0416573,
444,0.810654,444,0.0510239,444,0.354824,444,0.408751,444,0.0422021,
442,0.794901,442,0.0514688,442,0.354131,442,0.403355,442,0.0428428,
440,0.778977,440,0.0518676,440,0.353311,440,0.398018,440,0.0434336,
438,0.763105,438,0.0522931,438,0.352385,438,0.392677,438,0.044196,
436,0.746629,436,0.0526625,436,0.351037,436,0.387014,436,0.044828,
434,0.730713,434,0.0531898,434,0.349596,434,0.381509,434,0.0456233,
432,0.714838,432,0.0536618,432,0.347702,432,0.375924,432,0.0465462,
430,0.69887,430,0.0541511,430,0.345233,430,0.370171,430,0.0475111,
428,0.683363,428,0.0546093,428,0.342194,428,0.364328,428,0.0484586,
426,0.667942,426,0.0551284,426,0.33853,426,0.358341,426,0.0495526,
424,0.652717,424,0.0556987,424,0.334199,424,0.352254,424,0.0506976,
422,0.637751,422,0.0563604,422,0.32939,422,0.346116,422,0.0519694,
420,0.623323,420,0.0569837,420,0.324161,420,0.33999,420,0.0532213,
418,0.609092,418,0.0577241,418,0.318683,418,0.333977,418,0.0546318,
416,0.595429,416,0.0585196,416,0.31318,416,0.328151,416,0.0560531,
414,0.582431,414,0.0593673,414,0.307814,414,0.322483,414,0.0575142,
412,0.569819,412,0.0603015,412,0.302745,412,0.317247,412,0.0589734,
410,0.557999,410,0.0613508,410,0.298222,410,0.312315,410,0.0606544,
408,0.546928,408,0.0624512,408,0.294168,408,0.307847,408,0.0623388,
406,0.536497,406,0.0637234,406,0.290512,406,0.303788,406,0.0640427,
404,0.527074,404,0.0651698,404,0.287528,404,0.300347,404,0.0660056,
402,0.518292,402,0.0667539,402,0.284727,402,0.297105,402,0.0680055,
400,0.510427,400,0.0684709,400,0.282399,400,0.29442,400,0.0701301,
398,0.503807,398,0.0703791,398,0.280439,398,0.292261,398,0.0724603,
396,0.498024,396,0.0725257,396,0.278793,396,0.29053,396,0.0748645,
394,0.493611,394,0.0748324,394,0.277639,394,0.289436,394,0.077501,
392,0.49032,392,0.0774506,392,0.276915,392,0.288975,392,0.0803472,
390,0.488512,390,0.080464,390,0.276954,390,0.289355,390,0.0834607,
388,0.488233,388,0.084078,388,0.27809,388,0.290807,388,0.0870867,
386,0.489616,386,0.0881972,386,0.28036,386,0.293226,386,0.090988,
384,0.492797,384,0.0932303,384,0.28432,384,0.297068,384,0.0957376,
382,0.497759,382,0.0993638,382,0.290251,382,0.302541,382,0.101477,
380,0.504222,380,0.10685,380,0.298301,380,0.309578,380,0.108371,
378,0.512624,378,0.116563,378,0.309186,378,0.31885,378,0.117429,
376,0.522305,376,0.129246,376,0.323032,376,0.330425,376,0.129172,
374,0.53291,374,0.14615,374,0.340525,374,0.344733,374,0.145219,
372,0.544254,372,0.169806,372,0.362517,372,0.36294,372,0.167887,
370,0.555724,370,0.202756,370,0.389866,370,0.385728,370,0.199826,
368,0.566529,368,0.248995,368,0.423773,368,0.414454,368,0.245112,
366,0.576485,366,0.31359,366,0.465904,366,0.451289,366,0.308941,
364,0.584827,364,0.401145,364,0.5177,364,0.497796,364,0.396167,
362,0.591398,362,0.51889,362,0.582253,362,0.55717,362,0.514065,
360,0.595763,360,0.664928,360,0.658012,360,0.628012,360,0.660947,
358,0.598076,358,0.836027,358,0.743751,358,0.709194,358,0.833574,
356,0.598192,356,1.01422,356,0.831003,356,0.792132,356,1.01366,
354,0.596518,354,1.17225,354,0.908493,354,0.865086,354,1.17465,
352,0.59309,352,1.28243,352,0.963675,352,0.915688,352,1.28786,
350,0.588049,350,1.32939,350,0.99009,350,0.937761,350,1.33795,
348,0.58119,348,1.31911,348,0.989704,348,0.933361,348,1.3298,
346,0.572692,346,1.2803,346,0.974183,346,0.914814,346,1.29206,
344,0.562165,344,1.24548,344,0.95783,344,0.896182,344,1.25695,
342,0.54939,342,1.23774,342,0.950906,342,0.888096,342,1.24849,
340,0.534582,340,1.26338,340,0.956821,340,0.893952,340,1.27395,
338,0.517478,338,1.31535,338,0.973363,338,0.910687,338,1.32649,
336,0.499005,336,1.37313,336,0.99169,336,0.929676,336,1.38621,
334,0.479701,334,1.41286,334,1.00165,334,0.940133,334,1.42802,
332,0.460126,332,1.4086,332,0.99155,332,0.930918,332,1.42679,
330,0.439884,330,1.35112,330,0.956304,330,0.897261,330,1.37059,
328,0.419387,328,1.25108,328,0.90045,328,0.843325,328,1.27106,
326,0.399025,326,1.14279,326,0.838733,326,0.78406,326,1.1618,
324,0.378565,324,1.05332,324,0.784279,324,0.732716,324,1.07091,
322,0.358251,322,0.996766,322,0.744197,322,0.695242,322,1.01265,
320,0.338503,320,0.9664,320,0.716375,320,0.669746,320,0.980721,
318,0.319441,318,0.94412,318,0.693031,318,0.647851,318,0.957184,
316,0.301429,316,0.910082,316,0.664751,316,0.62078,316,0.921271,
314,0.284338,314,0.852708,314,0.626492,314,0.583058,314,0.861588,
312,0.268773,312,0.778405,312,0.580881,312,0.537841,312,0.784083,
310,0.254207,310,0.700861,310,0.534001,310,0.490903,310,0.702949,
308,0.240843,308,0.637303,308,0.493859,308,0.450378,308,0.635578,
306,0.228606,306,0.595384,306,0.464838,306,0.420012,306,0.588811,
304,0.217943,304,0.569629,304,0.445021,304,0.398076,304,0.558445,
302,0.20849,302,0.548673,302,0.428953,302,0.380026,302,0.533773,
300,0.200736,300,0.522726,300,0.412005,300,0.36153,300,0.50492,

imine polymer 0% TFA,
imine polymer 0% TFA
Collection Time: 2024-09-06 2:37:56 PM
Operator Name  :
Scan Version 6.4.0.1610
Parameter List :
Instrument  Cary 7000
Instrument Version  3.07
Method Log     :
Method Name    :
Date/Time stamp: 2024-09-06 2:24:00 PM
Method Modifications:
ConcentrationReportSelected Changed: 2024-09-06 2:24:01 PM, Old:Choice 0, New:Choice 1
ConcentrationReportSelected Changed: 2024-09-06 2:24:01 PM, Old:ON, New:Choice 0
MCAReportSelected Changed: 2024-09-06 2:24:01 PM, Old:Choice 0, New:Choice 1
MCAReportSelected Changed: 2024-09-06 2:24:01 PM, Old:ON, New:Choice 0
X Start nm Changed: 2024-09-06 2:26:10 PM, Old:800.000, New:1400.000
X Stop nm Changed: 2024-09-06 2:26:10 PM, Old:200.000, New:300.000
UVVIS Scan Rate nm Changed: 2024-09-06 2:26:10 PM, Old:  602.007, New:  600.000
NIR Scan Rate nm Changed: 2024-09-06 2:26:10 PM, Old:    0.004, New:   12.000
Common Interval nm Changed: 2024-09-06 2:26:10 PM, Old:    1.000, New:    0.667
Source changeover Changed: 2024-09-06 2:26:10 PM, Old:   350.00, New:   300.00
Detector changeover Changed: 2024-09-06 2:26:10 PM, Old:   800.00, New:   900.00
Grating changeover Changed: 2024-09-06 2:26:10 PM, Old:   800.00, New:   900.00
Baseline Correction Changed: 2024-09-06 2:26:10 PM, Old:0, New:2
Sipper Type Changed: 2024-09-06 2:26:10 PM, Old:Internal RSA, New:External sipper
End Method Modifications
<Current Wavelength> , 300.000
<SBW (nm)> , 2.00
<Energy> , 45.71
<Slit Height> , Full

imine polymer 0.017% TFA,
imine polymer 0.017% TFA
Collection Time: 2024-09-06 2:42:32 PM
Operator Name  :
Scan Version 6.4.0.1610
Parameter List :
Instrument  Cary 7000
Instrument Version  3.07
Method Log     :
Method Name    :
Date/Time stamp: 2024-09-06 2:24:00 PM
Method Modifications:
ConcentrationReportSelected Changed: 2024-09-06 2:24:01 PM, Old:Choice 0, New:Choice 1
ConcentrationReportSelected Changed: 2024-09-06 2:24:01 PM, Old:ON, New:Choice 0
MCAReportSelected Changed: 2024-09-06 2:24:01 PM, Old:Choice 0, New:Choice 1
MCAReportSelected Changed: 2024-09-06 2:24:01 PM, Old:ON, New:Choice 0
X Start nm Changed: 2024-09-06 2:26:10 PM, Old:800.000, New:1400.000
X Stop nm Changed: 2024-09-06 2:26:10 PM, Old:200.000, New:300.000
UVVIS Scan Rate nm Changed: 2024-09-06 2:26:10 PM, Old:  602.007, New:  600.000
NIR Scan Rate nm Changed: 2024-09-06 2:26:10 PM, Old:    0.004, New:   12.000
Common Interval nm Changed: 2024-09-06 2:26:10 PM, Old:    1.000, New:    0.667
Source changeover Changed: 2024-09-06 2:26:10 PM, Old:   350.00, New:   300.00
Detector changeover Changed: 2024-09-06 2:26:10 PM, Old:   800.00, New:   900.00
Grating changeover Changed: 2024-09-06 2:26:10 PM, Old:   800.00, New:   900.00
Baseline Correction Changed: 2024-09-06 2:26:10 PM, Old:0, New:2
Sipper Type Changed: 2024-09-06 2:26:10 PM, Old:Internal RSA, New:External sipper
End Method Modifications
<Current Wavelength> , 300.000
<SBW (nm)> , 2.00
<Energy> , 45.71
<Slit Height> , Full

imine polymer 0.05% TFA,
imine polymer 0.05% TFA
Collection Time: 2024-09-06 2:47:10 PM
Operator Name  :
Scan Version 6.4.0.1610
Parameter List :
Instrument  Cary 7000
Instrument Version  3.07
Method Log     :
Method Name    :
Date/Time stamp: 2024-09-06 2:24:00 PM
Method Modifications:
ConcentrationReportSelected Changed: 2024-09-06 2:24:01 PM, Old:Choice 0, New:Choice 1
ConcentrationReportSelected Changed: 2024-09-06 2:24:01 PM, Old:ON, New:Choice 0
MCAReportSelected Changed: 2024-09-06 2:24:01 PM, Old:Choice 0, New:Choice 1
MCAReportSelected Changed: 2024-09-06 2:24:01 PM, Old:ON, New:Choice 0
X Start nm Changed: 2024-09-06 2:26:10 PM, Old:800.000, New:1400.000
X Stop nm Changed: 2024-09-06 2:26:10 PM, Old:200.000, New:300.000
UVVIS Scan Rate nm Changed: 2024-09-06 2:26:10 PM, Old:  602.007, New:  600.000
NIR Scan Rate nm Changed: 2024-09-06 2:26:10 PM, Old:    0.004, New:   12.000
Common Interval nm Changed: 2024-09-06 2:26:10 PM, Old:    1.000, New:    0.667
Source changeover Changed: 2024-09-06 2:26:10 PM, Old:   350.00, New:   300.00
Detector changeover Changed: 2024-09-06 2:26:10 PM, Old:   800.00, New:   900.00
Grating changeover Changed: 2024-09-06 2:26:10 PM, Old:   800.00, New:   900.00
Baseline Correction Changed: 2024-09-06 2:26:10 PM, Old:0, New:2
Sipper Type Changed: 2024-09-06 2:26:10 PM, Old:Internal RSA, New:External sipper
End Method Modifications
<Current Wavelength> , 300.000
<SBW (nm)> , 2.00
<Energy> , 45.71
<Slit Height> , Full

imine polymer 0.25% TFA,
imine polymer 0.25% TFA
Collection Time: 2024-09-06 2:51:50 PM
Operator Name  :
Scan Version 6.4.0.1610
Parameter List :
Instrument  Cary 7000
Instrument Version  3.07
Method Log     :
Method Name    :
Date/Time stamp: 2024-09-06 2:24:00 PM
Method Modifications:
ConcentrationReportSelected Changed: 2024-09-06 2:24:01 PM, Old:Choice 0, New:Choice 1
ConcentrationReportSelected Changed: 2024-09-06 2:24:01 PM, Old:ON, New:Choice 0
MCAReportSelected Changed: 2024-09-06 2:24:01 PM, Old:Choice 0, New:Choice 1
MCAReportSelected Changed: 2024-09-06 2:24:01 PM, Old:ON, New:Choice 0
X Start nm Changed: 2024-09-06 2:26:10 PM, Old:800.000, New:1400.000
X Stop nm Changed: 2024-09-06 2:26:10 PM, Old:200.000, New:300.000
UVVIS Scan Rate nm Changed: 2024-09-06 2:26:10 PM, Old:  602.007, New:  600.000
NIR Scan Rate nm Changed: 2024-09-06 2:26:10 PM, Old:    0.004, New:   12.000
Common Interval nm Changed: 2024-09-06 2:26:10 PM, Old:    1.000, New:    0.667
Source changeover Changed: 2024-09-06 2:26:10 PM, Old:   350.00, New:   300.00
Detector changeover Changed: 2024-09-06 2:26:10 PM, Old:   800.00, New:   900.00
Grating changeover Changed: 2024-09-06 2:26:10 PM, Old:   800.00, New:   900.00
Baseline Correction Changed: 2024-09-06 2:26:10 PM, Old:0, New:2
Sipper Type Changed: 2024-09-06 2:26:10 PM, Old:Internal RSA, New:External sipper
End Method Modifications
<Current Wavelength> , 300.000
<SBW (nm)> , 2.00
<Energy> , 45.71
<Slit Height> , Full

imine polymer 1.0% TFA,
imine polymer 1.0% TFA
Collection Time: 2024-09-06 2:56:30 PM
Operator Name  :
Scan Version 6.4.0.1610
Parameter List :
Instrument  Cary 7000
Instrument Version  3.07
Method Log     :
Method Name    :
Date/Time stamp: 2024-09-06 2:24:00 PM
Method Modifications:
ConcentrationReportSelected Changed: 2024-09-06 2:24:01 PM, Old:Choice 0, New:Choice 1
ConcentrationReportSelected Changed: 2024-09-06 2:24:01 PM, Old:ON, New:Choice 0
MCAReportSelected Changed: 2024-09-06 2:24:01 PM, Old:Choice 0, New:Choice 1
MCAReportSelected Changed: 2024-09-06 2:24:01 PM, Old:ON, New:Choice 0
X Start nm Changed: 2024-09-06 2:26:10 PM, Old:800.000, New:1400.000
X Stop nm Changed: 2024-09-06 2:26:10 PM, Old:200.000, New:300.000
UVVIS Scan Rate nm Changed: 2024-09-06 2:26:10 PM, Old:  602.007, New:  600.000
NIR Scan Rate nm Changed: 2024-09-06 2:26:10 PM, Old:    0.004, New:   12.000
Common Interval nm Changed: 2024-09-06 2:26:10 PM, Old:    1.000, New:    0.667
Source changeover Changed: 2024-09-06 2:26:10 PM, Old:   350.00, New:   300.00
Detector changeover Changed: 2024-09-06 2:26:10 PM, Old:   800.00, New:   900.00
Grating changeover Changed: 2024-09-06 2:26:10 PM, Old:   800.00, New:   900.00
Baseline Correction Changed: 2024-09-06 2:26:10 PM, Old:0, New:2
Sipper Type Changed: 2024-09-06 2:26:10 PM, Old:Internal RSA, New:External sipper
End Method Modifications
<Current Wavelength> , 298.667
<SBW (nm)> , 2.00
<Energy> , 45.71
<Slit Height> , Full