File: UV-Vis data/2024_09/2024_09_11_imine polymer t=0hrs FeCl3 solution doping.csv
t=0hrs FeCl3 0uM,,t=0hrs FeCl3 20uM,,t=0hrs FeCl3 50uM,,t=0hrs FeCl3 100uM,,t=0hrs FeCl3 5uM repeat,,
Wavelength (nm),Abs,Wavelength (nm),Abs,Wavelength (nm),Abs,Wavelength (nm),Abs,Wavelength (nm),Abs,
1400,0.00611327,1400,0.00607995,1400,0.00511457,1400,0.00545537,1400,0.00238528,
1398,0.00534316,1398,0.00509962,1398,0.00438854,1398,0.00459585,1398,0.00180024,
1396,0.0042315,1396,0.00369004,1396,0.00317933,1396,0.0032885,1396,0.000916501,
1394,0.00320465,1394,0.00222913,1394,0.00196832,1394,0.00173827,1394,-8.11708e-05,
1392,0.00251549,1392,0.0016441,1392,0.00151061,1392,0.00151807,1392,-0.000151458,
1390,0.00212447,1390,0.000882339,1390,0.000739311,1390,0.00029046,1390,-0.000977544,
1388,0.00188561,1388,0.000669668,1388,0.000647684,1388,0.000625078,1388,-0.000907648,
1386,0.00176543,1386,0.000322141,1386,0.000259325,1386,-7.18017e-05,1386,-0.00126811,
1384,0.0016824,1384,0.000254171,1384,0.000129087,1384,-0.000117351,1384,-0.00124153,
1382,0.00172013,1382,0.000273571,1382,8.57428e-05,1382,-4.08461e-05,1382,-0.00121716,
1380,0.00181331,1380,0.00026663,1380,0.000144468,1380,0.000155059,1380,-0.00112071,
1378,0.00162352,1378,0.000155654,1378,-7.75474e-05,1378,-0.000213507,1378,-0.00140138,
1376,0.00166855,1376,0.000151925,1376,0,1376,7.05709e-05,1376,-0.00130456,
1374,0.00165145,1374,0.000149802,1374,-9.9401e-06,1374,0.000211514,1374,-0.00131343,
1372,0.00150986,1372,0.000195354,1372,6.22602e-05,1372,0.000484726,1372,-0.00118174,
1370,0.00162601,1370,5.53218e-05,1370,-8.15849e-05,1370,0.000107388,1370,-0.00135173,
1368,0.0015323,1368,7.53347e-05,1368,-2.52122e-05,1368,0.000246245,1368,-0.00129475,
1366,0.00145871,1366,9.47437e-06,1366,-9.07467e-05,1366,6.56e-05,1366,-0.00134745,
1364,0.00137956,1364,-3.15797e-05,1364,-0.000157099,1364,-0.000317867,1364,-0.00140065,
1362,0.00129561,1362,-5.07335e-05,1362,-0.000160774,1362,-0.000108707,1362,-0.00134414,
1360,0.00123102,1360,-0.00016155,1360,-0.000263594,1360,-0.000373322,1360,-0.00152526,
1358,0.00114191,1358,-0.000328214,1358,-0.000408961,1358,-0.000470973,1358,-0.00158526,
1356,0.0011261,1356,-0.000449872,1356,-0.000472317,1356,-0.00073852,1356,-0.00173256,
1354,0.0010409,1354,-0.000441183,1354,-0.000452044,1354,-0.000625472,1354,-0.00170517,
1352,0.000911417,1352,-0.000471128,1352,-0.000555055,1352,-0.000810458,1352,-0.00177953,
1350,0.000827301,1350,-0.000610014,1350,-0.000647236,1350,-0.000736194,1350,-0.00180608,
1348,0.00089964,1348,-0.000604017,1348,-0.000593005,1348,-0.000837483,1348,-0.00186027,
1346,0.000892377,1346,-0.000695361,1346,-0.000679544,1346,-0.000979249,1346,-0.0019481,
1344,0.000937903,1344,-0.000644134,1344,-0.000514722,1344,-0.000857118,1344,-0.00188748,
1342,0.000937358,1342,-0.000667707,1342,-0.00044951,1342,-0.000906357,1342,-0.00188723,
1340,0.000948799,1340,-0.000702029,1340,-0.000462905,1340,-0.000866522,1340,-0.00192372,
1338,0.000947605,1338,-0.000689934,1338,-0.000545127,1338,-0.000880059,1338,-0.00189042,
1336,0.000963171,1336,-0.000689159,1336,-0.000633278,1336,-0.000845337,1336,-0.00190279,
1334,0.000927319,1334,-0.000670912,1334,-0.000661607,1334,-0.000885639,1334,-0.00192418,
1332,0.000903479,1332,-0.000718156,1332,-0.00073056,1332,-0.000997121,1332,-0.00193594,
1330,0.000852407,1330,-0.000677838,1330,-0.000751027,1330,-0.00098054,1330,-0.00187805,
1328,0.000714471,1328,-0.000664399,1328,-0.000706991,1328,-0.000960756,1328,-0.00188351,
1326,0.00071193,1326,-0.000671532,1326,-0.000784051,1326,-0.000902327,1326,-0.0019347,
1324,0.000687246,1324,-0.000629401,1324,-0.000736814,1324,-0.000736297,1324,-0.00189068,
1322,0.000619738,1322,-0.000608618,1322,-0.000706319,1322,-0.000630383,1322,-0.00191444,
1320,0.000601955,1320,-0.000632503,1320,-0.0007333,1320,-0.000674582,1320,-0.00191408,
1318,0.00063454,1318,-0.000545179,1318,-0.000752422,1318,-0.000758418,1318,-0.00188862,
1316,0.000586584,1316,-0.000545282,1316,-0.000789735,1316,-0.000831954,1316,-0.00187614,
1314,0.000574608,1314,-0.000558002,1314,-0.000833349,1314,-0.000895972,1314,-0.0018796,
1312,0.000568491,1312,-0.000533079,1312,-0.000816194,1312,-0.000845906,1312,-0.00187104,
1310,0.000511912,1310,-0.000543731,1310,-0.000842392,1310,-0.000954867,1310,-0.00208858,
1308,0.000506132,1308,-0.000496571,1308,-0.000822395,1308,-0.00060929,1308,-0.0018946,
1306,0.000486877,1306,-0.000481109,1306,-0.000770201,1306,-0.000403168,1306,-0.00186573,
1304,0.000395511,1304,-0.000473403,1304,-0.000857687,1304,-0.000374357,1304,-0.00174911,
1302,0.000488976,1302,-0.000366805,1302,-0.000821413,1302,-0.000296035,1302,-0.0017308,
1300,0.000493019,1300,-0.000436942,1300,-0.000829216,1300,-0.000263646,1300,-0.00180866,
1298,0.000512016,1298,-0.000426133,1298,-0.000769942,1298,-1.62561e-05,1298,-0.00176576,
1296,0.000504344,1296,-0.000421478,1296,-0.000779917,1296,0.000135897,1296,-0.0018051,
1294,0.000574842,1294,-0.000372908,1294,-0.000776454,1294,0.000197969,1294,-0.00180851,
1292,0.000656265,1292,-0.000364425,1292,-0.000791699,1292,0.000109822,1292,-0.00185944,
1290,0.000621449,1290,-0.000474386,1290,-0.000803637,1290,1.72404e-05,1290,-0.00186655,
1288,0.00062023,1288,-0.000458044,1288,-0.000879336,1288,9.66172e-05,1288,-0.00183892,
1286,0.000539332,1286,-0.000471438,1286,-0.000873394,1286,0.00014597,1286,-0.0018915,
1284,0.000526762,1284,-0.000463164,1284,-0.000804463,1284,0.000187895,1284,-0.00182835,
1282,0.0005363,1282,-0.000524909,1282,-0.00067329,1282,0.000231534,1282,-0.00185856,
1280,0.000516473,1280,-0.000533855,1280,-0.000530132,1280,0.000246556,1280,-0.001815,
1278,0.000546615,1278,-0.000545747,1278,-0.000501225,1278,0.00030507,1278,-0.00179149,
1276,0.000511445,1276,-0.000561621,1276,-0.000464715,1276,0.000417405,1276,-0.00179732,
1274,0.000484493,1274,-0.000601536,1274,-0.00045282,1274,0.000514555,1274,-0.00179407,
1272,0.000460782,1272,-0.000623404,1272,-0.000460164,1272,0.00056043,1272,-0.00177814,
1270,0.000485711,1270,-0.000633175,1270,-0.000559294,1270,0.000467675,1270,-0.00176628,
1268,0.000485141,1268,-0.000680268,1268,-0.000660315,1268,0.000354472,1268,-0.00174916,
1266,0.000494108,1266,-0.000657989,1266,-0.00072043,1266,0.000248084,1266,-0.00175561,
1264,0.000535211,1264,-0.000643514,1264,-0.00071645,1264,0.000290253,1264,-0.00173271,
1262,0.000569813,1262,-0.000652354,1262,-0.000776816,1262,0.000227494,1262,-0.00176298,
1260,0.000646958,1260,-0.000665432,1260,-0.00077387,1260,0.000201414,1260,-0.00174911,
1258,0.000599674,1258,-0.0006843,1258,-0.00079666,1258,0.000211514,1258,-0.00175313,
1256,0.000600192,1256,-0.000696809,1256,-0.00077971,1256,0.000129889,1256,-0.00180139,
1254,0.000597445,1254,-0.000626454,1254,-0.00118128,1254,0.000129009,1254,-0.00175689,
1252,0.000577097,1252,-0.000565861,1252,-0.00058768,1252,7.91406e-05,1252,-0.00177494,
1250,0.000533423,1250,-0.000528063,1250,-0.00067422,1250,2.93298e-05,1250,-0.0017951,
1248,0.000580389,1248,-0.000468749,1248,-0.000704407,1248,-2.31414e-05,1248,-0.00176669,
1246,0.000600322,1246,-0.000405806,1246,-0.000720843,1246,-9.70098e-05,1246,-0.00179247,
1244,0.000640114,1244,-0.00036308,1244,-0.000734282,1244,-0.000122113,1244,-0.00180717,
1242,0.000684913,1242,-0.000335663,1242,-0.000659798,1242,-6.88512e-05,1242,-0.00174493,
1240,0.000634385,1240,-0.000359149,1240,-0.000699962,1240,-6.16042e-05,1240,-0.00176633,
1238,0.000618545,1238,-0.000405185,1238,-0.000674117,1238,-0.000117558,1238,-0.00182645,
1236,0.000674076,1236,-0.000438546,1236,-0.000710868,1236,-8.78999e-05,1236,-0.00181892,
1234,0.000655357,1234,-0.000449045,1234,-0.000686367,1234,-3.6653e-05,1234,-0.00175927,
1232,0.000583007,1232,-0.00049321,1232,-0.0007502,1232,-4.65945e-06,1232,-0.00178494,
1230,0.00065655,1230,-0.000518083,1230,-0.000786325,1230,1.04581e-05,1230,-0.00179649,
1228,0.000680168,1228,-0.000512188,1228,-0.000731801,1228,0.000136415,1228,-0.00177149,
1226,0.000653906,1226,-0.000532872,1226,-0.000776816,1226,0.000149983,1226,-0.00182774,
1224,0.000711774,1224,-0.000521806,1224,-0.000800794,1224,0.000265904,1224,-0.00181717,
1222,0.000777015,1222,-0.000507121,1222,-0.00081206,1222,0.000368306,1222,-0.0018133,
1220,0.000716078,1220,-0.000548695,1220,-0.000825082,1220,0.00033157,1220,-0.00181861,
1218,0.000707911,1218,-0.000595745,1218,-0.000828337,1218,0.000271266,1218,-0.00185923,
1216,0.000749294,1216,-0.000599209,1216,-0.000795317,1216,0.000315302,1216,-0.00185846,
1214,0.000831969,1214,-0.000623456,1214,-0.000734747,1214,0.000373229,1214,-0.00178793,
1212,0.000808705,1212,-0.000608722,1212,-0.00070022,1212,0.000342477,1212,-0.00178654,
1210,0.000814126,1210,-0.000657368,1210,-0.000742086,1210,0.000276783,1210,-0.00181567,
1208,0.000802585,1208,-0.000660728,1208,-0.0007287,1208,0.00033898,1208,-0.00175726,
1206,0.000767446,1206,-0.000620147,1206,-0.000753198,1206,0.000268132,1206,-0.00183155,
1204,0.000766331,1204,-0.000667087,1204,-0.000750407,1204,0.000249664,1204,-0.00177432,
1202,0.000748024,1202,-0.000669154,1202,-0.000796092,1202,0.000163086,1202,-0.00175731,
1200,0.000725646,1200,-0.000669826,1200,-0.000770614,1200,0.000126782,1200,-0.00177747,
1198,0.00100502,1198,-0.000696137,1198,-0.000750562,1198,-0.000279272,1198,-0.00176556,
1196,0.00114455,1196,-0.000730302,1196,-0.000737744,1196,-0.000302657,1196,-0.00175571,
1194,0.00131119,1194,-0.000692674,1194,-0.000785498,1194,-0.000373788,1194,-0.0018463,
1192,0.00137319,1192,-0.000658867,1192,-0.000771028,1192,-0.000332145,1192,-0.00177396,
1190,0.00146443,1190,-0.000576408,1190,-0.000659849,1190,-0.00032511,1190,-0.00178417,
1188,0.00124612,1188,-0.000635708,1188,-0.000711591,1188,-0.000358631,1188,-0.00183037,
1186,0.00113578,1186,-0.000561983,1186,-0.000639275,1186,-0.000301053,1186,-0.00177468,
1184,0.000990413,1184,-0.000587886,1184,-0.000596986,1184,-0.0002697,1184,-0.00176514,
1182,0.000895049,1182,-0.000565396,1182,-0.000553658,1182,-0.00018991,1182,-0.001772,
1180,0.000856505,1180,-0.000599467,1180,-0.000516842,1180,-0.000169158,1180,-0.00172549,
1178,0.000741826,1178,-0.000629091,1178,-0.000539956,1178,-0.000167812,1178,-0.00180454,
1176,0.000652817,1176,-0.000625472,1176,-0.000562293,1176,-0.000195964,1176,-0.00180005,
1174,0.000611313,1174,-0.000644186,1174,-0.000495123,1174,-0.000136656,1174,-0.00180088,
1172,0.000566236,1172,-0.000646151,1172,-0.000519066,1172,-0.000160515,1172,-0.00178288,
1170,0.000523367,1170,-0.000652251,1170,-0.000488297,1170,-0.000173712,1170,-0.00178912,
1168,0.000519402,1168,-0.000615494,1168,-0.000485143,1168,-8.33966e-05,1168,-0.00175689,
1166,0.000536585,1166,-0.000627333,1166,-0.00048809,1166,-0.000158756,1166,-0.00174921,
1164,0.000541173,1164,-0.000634416,1164,-0.000550866,1164,-0.00018815,1164,-0.00180392,
1162,0.000493149,1162,-0.000614202,1162,-0.000503759,1162,-0.000226909,1162,-0.00183356,
1160,0.000518728,1160,-0.000543576,1160,-0.000491297,1160,-0.00023762,1160,-0.00177561,
1158,0.000411186,1158,-0.00052253,1158,-0.00045644,1158,-0.000351803,1158,-0.00181144,
1156,0.000315561,1156,-0.000635398,1156,-0.000811801,1156,-0.000544713,1156,-0.00232969,
1154,0.000783939,1154,-0.000333852,1154,-8.41213e-05,1154,-0.000298725,1154,-0.00163828,
1152,0.00056748,1152,-0.000231928,1152,-0.000216767,1152,5.28106e-05,1152,-0.00148373,
1150,0.000805489,1150,-5.69488e-06,1150,6.84997e-05,1150,0.000354342,1150,-0.00135859,
1148,0.000956426,1148,0.000135327,1148,1.20113e-05,1148,0.000267355,1148,-0.00131818,
1146,0.000751758,1146,-2.36591e-05,1146,-1.28393e-05,1146,7.71729e-05,1146,-0.00157922,
1144,0.000558668,1144,-0.000308037,1144,-0.000241656,1144,-0.00011202,1144,-0.00170136,
1142,0.000610483,1142,-0.000326403,1142,-0.000285635,1142,-0.000212782,1142,-0.00169496,
1140,0.000546589,1140,-0.000391789,1140,-0.000362925,1140,-0.000305399,1140,-0.0017685,
1138,0.00052824,1138,-0.000368512,1138,-0.000378805,1138,-0.000244191,1138,-0.00168852,
1136,0.00049403,1136,-0.000370581,1136,-0.000388478,1136,-0.0002831,1136,-0.00165737,
1134,0.000455625,1134,-0.000474283,1134,-0.000385944,1134,-0.000257334,1134,-0.00170512,
1132,0.000512923,1132,-0.000428305,1132,-0.000427891,1132,-0.000279582,1132,-0.00172302,
1130,0.000529717,1130,-0.00044439,1130,-0.000361787,1130,-0.000234722,1130,-0.00175406,
1128,0.000508232,1128,-0.000501381,1128,-0.000453958,1128,-0.000304261,1128,-0.00179871,
1126,0.000547574,1126,-0.000482971,1126,-0.00042396,1126,-0.000263543,1126,-0.00184057,
1124,0.000519091,1124,-0.000446976,1124,-0.000397323,1124,-0.000269648,1124,-0.0018599,
1122,0.000399863,1122,-0.000565602,1122,-0.00047842,1122,-0.000346216,1122,-0.00188382,
1120,0.000461352,1120,-0.000513998,1120,-0.000466629,1120,-0.000317556,1120,-0.00187826,
1118,0.000461766,1118,-0.00051193,1118,-0.000424736,1118,-0.00029976,1118,-0.0018231,
1116,0.000500146,1116,-0.000518445,1116,-0.000423185,1116,-0.000266699,1116,-0.00184563,
1114,0.000472598,1114,-0.000491245,1114,-0.000465025,1114,-0.000329662,1114,-0.00182959,
1112,0.000506003,1112,-0.00050226,1112,-0.000495072,1112,-0.00034363,1112,-0.00188542,
1110,0.000484415,1110,-0.000418633,1110,-0.000462853,1110,-0.000378547,1110,-0.00190857,
1108,0.000479181,1108,-0.000343319,1108,-0.000447131,1108,-0.000331783,1108,-0.00190918,
1106,0.000509061,1106,-0.000372391,1106,-0.000393961,1106,-0.000351855,1106,-0.00189429,
1104,0.000553769,1104,-0.000314556,1104,-0.000358631,1104,-0.000317505,1104,-0.0018565,
1102,0.000591586,1102,-0.000288377,1102,-0.000357959,1102,-0.000388116,1102,-0.00204493,
1100,0.000591716,1100,-0.000307623,1100,-0.000341457,1100,-0.00025335,1100,-0.00192186,
1098,0.000575723,1098,-0.000250349,1098,-0.000339802,1098,-0.000264474,1098,-0.00185779,
1096,0.000503178,1096,-0.000330748,1096,-0.000346371,1096,-0.000244657,1096,-0.00193274,
1094,0.000574401,1094,-0.000279737,1094,-0.000292516,1094,-0.000180077,1094,-0.0018947,
1092,0.00056621,1092,-0.000262094,1092,-0.000334732,1092,-0.000128893,1092,-0.00188305,
1090,0.000548274,1090,-0.00026732,1090,-0.000410875,1090,-0.000149233,1090,-0.00186635,
1088,0.000552654,1088,-0.000241656,1088,-0.000451631,1088,-8.24131e-05,1088,-0.00192357,
1086,0.000539462,1086,-0.000236792,1086,-0.000444649,1086,-2.78524e-05,1086,-0.00186088,
1084,0.00056691,1084,-0.000223597,1084,-0.000309331,1084,6.30369e-05,1084,-0.001805,
1082,0.000570902,1082,-0.000160981,1082,-0.00035889,1082,0.000108398,1082,-0.00181211,
1080,0.000504163,1080,-0.000257955,1080,-0.00039753,1080,0.000157389,1080,-0.00179283,
1078,0.00056831,1078,-0.000152235,1078,-0.000364787,1078,0.000234279,1078,-0.00170729,
1076,0.000495974,1076,-0.00022427,1076,-0.000413978,1076,0.000183596,1076,-0.00181433,
1074,0.00052754,1074,-0.00029412,1074,-0.000365304,1074,0.000201621,1074,-0.00179556,
1072,0.000541276,1072,-0.000316884,1072,-0.000368667,1072,0.000233243,1072,-0.00175607,
1070,0.000570357,1070,-0.00026137,1070,-0.000350665,1070,0.000273002,1070,-0.00176009,
1068,0.000540784,1068,-0.000306071,1068,-0.000331473,1068,0.000263185,1068,-0.00174411,
1066,0.000538503,1066,-0.000271976,1066,-0.000369546,1066,0.000250027,1066,-0.00175891,
1064,0.00048838,1064,-0.000233377,1064,-0.000374926,1064,0.000216487,1064,-0.00174287,
1062,0.000490946,1062,-0.000173867,1062,-0.000360701,1062,0.000197814,1062,-0.00177056,
1060,0.000482809,1060,-9.0902e-05,1060,-0.000277978,1060,0.000288828,1060,-0.00174911,
1058,0.000440155,1058,-6.80748e-05,1058,-0.000338663,1058,0.000299526,1058,-0.00172312,
1056,0.00050761,1056,7.81763e-06,1056,-0.000276426,1056,0.000365405,1056,-0.00170162,
1054,0.000430723,1054,3.021e-05,1054,-0.000292361,1054,0.000366648,1054,-0.00171755,
1052,0.00048001,1052,5.55548e-05,1052,-0.000262663,1052,0.000372788,1052,-0.00168011,
1050,0.000480424,1050,4.73221e-05,1050,-0.000233791,1050,0.000420462,1050,-0.0016551,
1048,0.00045648,1048,-2.86289e-05,1048,-0.000214076,1048,0.000369032,1048,-0.0017322,
1046,0.000474905,1046,-3.72224e-05,1046,-0.000215887,1046,0.000388204,1046,-0.00171642,
1044,0.00044513,1044,-7.14394e-05,1044,-0.000231876,1044,0.000361544,1044,-0.00170796,
1042,0.00037797,1042,-0.000143333,1042,-0.000215525,1042,0.00029305,1042,-0.00176344,
1040,0.000407507,1040,-0.000112124,1040,-0.000185977,1040,0.000307375,1040,-0.0017275,
1038,0.000441736,1038,-0.000115954,1038,-0.000146386,1038,0.000311287,1038,-0.00171533,
1036,0.000456661,1036,-0.000152442,1036,-0.000168485,1036,0.000319214,1036,-0.00167495,
1034,0.00047931,1034,-0.00011761,1034,-8.39142e-05,1034,0.000359524,1034,-0.00172637,
1032,0.000494315,1032,-0.00010612,1032,-9.5457e-05,1032,0.000389785,1032,-0.00169218,
1030,0.000581166,1030,-6.2536e-05,1030,-5.55477e-05,1030,0.000402351,1030,-0.00172369,
1028,0.000485115,1028,-7.89968e-05,1028,-8.56741e-05,1028,0.000422224,1028,-0.00168733,
1026,0.000574971,1026,-2.69213e-06,1026,-3.51e-05,1026,0.000419089,1026,-0.00166067,
1024,0.000556154,1024,2.31168e-05,1024,-5.51854e-05,1024,0.000442954,1024,-0.00169801,
1022,0.00059182,1022,4.63361e-06,1022,1.63344e-05,1022,0.000463425,1022,-0.00162998,
1020,0.00060981,1020,4.74257e-05,1020,3.10643e-05,1020,0.000515255,1020,-0.00165618,
1018,0.000564681,1018,8.95488e-05,1018,5.52183e-05,1018,0.000528265,1018,-0.00167284,
1016,0.000588139,1016,0.000108631,1016,0.000118211,1016,0.000521553,1016,-0.00162266,
1014,0.000548611,1014,4.7348e-05,1014,9.90251e-05,1014,0.000541484,1014,-0.00166907,
1012,0.00057593,1012,0.000111246,1012,0.000110599,1012,0.000545501,1012,-0.00163158,
1010,0.000615616,1010,0.000176604,1010,0.000191469,1010,0.000612998,1010,-0.00162854,
1008,0.000630107,1008,0.000172435,1008,0.000142785,1008,0.000605221,1008,-0.00163751,
1006,0.000586221,1006,0.00021009,1006,0.000100941,1006,0.000643173,1006,-0.001621,
1004,0.000642369,1004,0.000218714,1004,0.000215321,1004,0.000655176,1004,-0.00165422,
1002,0.000629796,1002,0.000195172,1002,0.000224334,1002,0.000619271,1002,-0.00161636,
1000,0.000663265,1000,0.000166064,1000,0.000217005,1000,0.000619064,1000,-0.00160878,
998,0.000719604,998,0.000251581,998,0.000274374,998,0.000681439,998,-0.00161605,
996,0.000818249,996,0.000312763,996,0.000324835,996,0.00071766,996,-0.00153713,
994,0.000823877,994,0.000297972,994,0.000337477,994,0.000709933,994,-0.00156194,
992,0.000795972,992,0.000239097,992,0.000318462,992,0.000659505,992,-0.00159315,
990,0.000802455,990,0.000252384,990,0.000335612,990,0.000684291,990,-0.00160661,
988,0.000911235,988,0.000319524,988,0.000459305,988,0.000744004,988,-0.00153579,
986,0.000901456,986,0.000336026,986,0.000480321,986,0.000742656,986,-0.00153151,
984,0.000922286,984,0.00029318,984,0.000480969,984,0.000785028,984,-0.00153538,
982,0.000934245,982,0.00033841,982,0.000501338,982,0.000813192,982,-0.00148239,
980,0.000959306,980,0.000385017,980,0.00057536,980,0.000830646,980,-0.0014649,
978,0.000962445,978,0.000376467,978,0.000558771,978,0.000890665,978,-0.00150205,
976,0.00101273,976,0.000378747,976,0.00061559,976,0.000913778,976,-0.0014745,
974,0.00102928,974,0.00037582,974,0.000621786,974,0.000968023,974,-0.00147568,
972,0.000930406,972,0.00032999,972,0.000618805,972,0.000938966,972,-0.00148507,
970,0.00100505,970,0.000316079,970,0.000583421,970,0.00100533,970,-0.00147837,
968,0.000958787,968,0.000354264,968,0.000620282,968,0.000989011,968,-0.0015232,
966,0.000949343,966,0.000331182,966,0.000629174,966,0.00104545,966,-0.00153398,
964,0.00101984,964,0.000414788,964,0.000729821,964,0.00109254,964,-0.0014812,
962,0.000979127,962,0.000445441,962,0.00077258,962,0.00117253,962,-0.00140102,
960,0.00105909,960,0.000559342,960,0.000925088,960,0.0012564,960,-0.00136138,
958,0.00110261,958,0.000665676,958,0.00102892,958,0.00138732,958,-0.00126961,
956,0.00108507,956,0.000663809,956,0.00105676,956,0.00142796,956,-0.00127833,
954,0.00104612,954,0.000711411,954,0.00106657,954,0.00146521,954,-0.0012296,
952,0.00100445,952,0.000660024,952,0.00107303,952,0.00146521,952,-0.00127265,
950,0.00095915,950,0.000692562,950,0.00110121,950,0.00147175,950,-0.00121886,
948,0.00091274,948,0.000700469,948,0.00113781,948,0.00145438,948,-0.00123337,
946,0.000911132,946,0.000795064,946,0.00122403,946,0.00151786,946,-0.00122284,
944,0.00093728,944,0.000778726,944,0.00125973,944,0.00152025,944,-0.00122521,
942,0.000886697,942,0.000848879,942,0.00130233,942,0.00158265,942,-0.00122759,
940,0.000877825,940,0.000874869,940,0.00139168,940,0.00158504,940,-0.00123796,
938,0.000879667,938,0.000936269,938,0.00140464,938,0.00162167,938,-0.00124215,
936,0.000915178,936,0.00101374,936,0.00145316,936,0.00165912,936,-0.00123884,
934,0.000927734,934,0.00105004,934,0.00152279,934,0.0017685,934,-0.00120492,
932,0.000943117,932,0.00110038,932,0.0015547,932,0.00175454,932,-0.00121861,
930,0.000919822,930,0.00117015,930,0.00165504,930,0.00183931,930,-0.00117043,
928,0.000979023,928,0.00125028,928,0.00172606,928,0.0018756,928,-0.00121112,
926,0.000954973,926,0.00131973,926,0.00181529,926,0.00195865,926,-0.00112474,
924,0.000995083,924,0.00144539,924,0.00189112,924,0.00203716,924,-0.0011677,
922,0.000994408,922,0.00152916,922,0.00201391,922,0.00212809,922,-0.00111265,
920,0.000986365,920,0.00162877,920,0.00207266,920,0.00216448,920,-0.00105306,
918,0.000992748,918,0.00162601,918,0.00213134,918,0.00225906,918,-0.00110155,
916,0.00102689,916,0.00178124,916,0.00229557,916,0.00240425,916,-0.00103493,
914,0.0010271,914,0.00185836,914,0.00244606,914,0.00246595,914,-0.000960859,
912,0.000981176,912,0.00200712,912,0.00251062,912,0.00258968,912,-0.000981005,
910,0.000979983,910,0.0021368,910,0.00269466,910,0.00270026,910,-0.000945568,
908,0.000983797,908,0.00227714,908,0.00288294,908,0.00285881,908,-0.000883469,
906,0.000969086,906,0.00236708,906,0.0029458,906,0.00295195,906,-0.000919479,
904,0.00101138,904,0.00253773,904,0.0031695,904,0.00312149,904,-0.000823945,
902,0.000992929,902,0.00268718,902,0.00332167,902,0.00324538,902,-0.000817434,
900,0.000974898,900,0.00280821,900,0.0034852,900,0.00333073,900,-0.000830766,
898,0.00238044,898,0.00331307,898,0.00497172,898,0.0065641,898,0.000565847,
896,0.000409942,896,0.00353074,896,0.00705527,896,0.00284662,896,0.00172068,
894,0.000690228,894,0.00157028,894,0.00434726,894,0.00324747,894,-0.000777539,
892,0.00119543,892,0.00512557,892,0.00634598,892,0.00556653,892,0.00172351,
890,0.00285543,890,0.00528575,890,0.00652009,890,0.00501382,890,0.002621,
888,0.0031945,888,0.00570483,888,0.00880437,888,0.00663241,888,0.0014943,
886,0.00218751,886,0.00549524,886,0.00720384,886,0.00674992,886,0.00247811,
884,0.00328962,884,0.00602178,884,0.00692361,884,0.00542203,884,0.00158361,
882,0.00179917,882,0.00584035,882,0.00815536,882,0.006539586,882,0.00107381,
880,0.00194624,880,0.00593476,880,0.00733311,880,0.00679814,880,0.00145882,
878,0.0023523,878,0.00667176,878,0.00876562,878,0.00734391,878,0.00194749,
876,0.00358717,876,0.0069889,876,0.00962195,876,0.00773368,876,0.00214057,
874,0.00196008,874,0.00686412,874,0.0100344,874,0.00672468,874,0.00225666,
872,0.00120578,872,0.00761764,872,0.00841301,872,0.00736594,872,0.00132284,
870,0.00128816,870,0.00656455,870,0.00937584,870,0.00646118,870,0.00113723,
868,0.00317907,868,0.00866325,868,0.0101368,868,0.00855318,868,0.00308956,
866,0.00194523,866,0.00778401,866,0.0100101,866,0.00769328,866,0.00204647,
864,0.00256595,864,0.00923427,864,0.0109695,864,0.00903809,864,0.00251,
862,0.00227772,862,0.00933312,862,0.0110376,862,0.00869761,862,0.00194557,
860,0.00195038,860,0.00908167,860,0.0114753,860,0.00928591,860,0.00237729,
858,0.00207318,858,0.0100326,858,0.0119755,858,0.00895431,858,0.002534681,
856,0.0023281,856,0.0104825,856,0.0123514,856,0.00976971,856,0.00289284,
854,0.0017535,854,0.0105108,854,0.0125265,854,0.00988036,854,0.0022767,
852,0.00204745,852,0.0106902,852,0.0133129,852,0.0103881,852,0.00280496,
850,0.00197222,850,0.0111995,850,0.0136232,850,0.0102835,850,0.00297486,
848,0.00238478,848,0.0118901,848,0.0146053,848,0.010855,848,0.00259546,
846,0.00197074,846,0.0122135,846,0.0145297,846,0.0111357,846,0.00287372,
844,0.002346,844,0.0129964,844,0.0154452,844,0.0118669,844,0.00320298,
842,0.00228711,842,0.0134845,842,0.0160065,842,0.0122115,842,0.0032759,
840,0.00236472,840,0.014046,840,0.0166588,840,0.0126155,840,0.00328998,
838,0.00225008,838,0.0143078,838,0.0172092,838,0.0130315,838,0.0034428,
836,0.00203489,836,0.0149708,836,0.017595,836,0.0133865,836,0.00331127,
834,0.00241748,834,0.0156491,834,0.0183823,834,0.0140447,834,0.00362449,
832,0.00211209,832,0.0157089,832,0.0187238,832,0.0143354,832,0.00340181,
830,0.00229806,830,0.0166015,830,0.0195178,830,0.0148102,830,0.00358025,
828,0.0023777,828,0.0171026,828,0.0201825,828,0.0153048,828,0.00369362,
826,0.00237325,826,0.0175453,826,0.0206901,826,0.0158726,826,0.00386656,
824,0.00224378,824,0.0181832,824,0.0213587,824,0.0163137,824,0.00371557,
822,0.0024503,822,0.0189058,822,0.0223248,822,0.0169902,822,0.00390493,
820,0.00267541,820,0.0196287,820,0.023001,820,0.0176097,820,0.00427225,
818,0.0024458,818,0.0204338,818,0.0237883,818,0.0181348,818,0.00430446,
816,0.00228672,816,0.0206557,816,0.0242511,816,0.0186401,816,0.00427591,
814,0.00246129,814,0.0215114,814,0.0251081,814,0.0194781,814,0.00436318,
812,0.00251333,812,0.0223001,812,0.0260904,812,0.0200649,812,0.00457448,
810,0.00267877,810,0.0229732,810,0.0269252,810,0.0209047,810,0.00466971,
808,0.00253346,808,0.0238624,808,0.0277773,808,0.0217879,808,0.0050094,
806,0.00249115,806,0.0245545,806,0.0286185,806,0.0224734,806,0.00485922,
804,0.00268979,804,0.0254614,804,0.0294527,804,0.0232219,804,0.00508348,
802,0.00247503,802,0.026058,802,0.0303415,802,0.0239869,802,0.00508317,
800,0.00254234,800,0.0268822,800,0.0312421,800,0.0249588,800,0.00522022,
798,0.00245684,798,0.0278653,798,0.0322351,798,0.0257831,798,0.00525399,
796,0.0024546,796,0.0286677,796,0.0332801,796,0.0267901,796,0.00544968,
794,0.00248802,794,0.029639,794,0.0342405,794,0.0277166,794,0.00561721,
792,0.00270075,792,0.030863,792,0.035571,792,0.028796,792,0.00608649,
790,0.00263038,790,0.0315208,790,0.0367133,790,0.0299069,790,0.00598121,
788,0.00254775,788,0.0325547,788,0.0377459,788,0.0309575,788,0.00628589,
786,0.00250745,786,0.0337539,786,0.0391682,786,0.0321898,786,0.00642873,
784,0.00277216,784,0.034804,784,0.0404323,784,0.0333932,784,0.00679827,
782,0.00266721,782,0.0360061,782,0.041753,782,0.0347718,782,0.00703801,
780,0.00267122,780,0.0372616,780,0.043261,780,0.0361505,780,0.0072633,
778,0.00275369,778,0.0384459,778,0.0446797,778,0.0374541,778,0.00732213,
776,0.00264577,776,0.0396001,776,0.0461112,776,0.0388678,776,0.00754512,
774,0.00257166,774,0.0409757,774,0.047892,774,0.0404044,774,0.00795598,
772,0.00250359,772,0.0421441,772,0.0494705,772,0.0418794,772,0.00814141,
770,0.00255674,770,0.0436759,770,0.0511007,770,0.0436455,770,0.00847298,
768,0.00261475,768,0.0451667,768,0.0530735,768,0.0454182,768,0.00880112,
766,0.0026528,766,0.0468427,766,0.0551092,766,0.0473508,766,0.00921658,
764,0.00259509,764,0.0483147,764,0.0569989,764,0.0492752,764,0.00946038,
762,0.00264905,762,0.0497853,762,0.0591109,762,0.0512252,762,0.00984962,
760,0.00268935,760,0.0516581,760,0.0613787,760,0.0533878,760,0.0101113,
758,0.00255718,758,0.0531499,758,0.0636815,758,0.0554616,758,0.0103933,
756,0.00266557,756,0.0551633,756,0.0661692,756,0.0578705,756,0.0107748,
754,0.0026108,754,0.0569354,754,0.0686477,754,0.0603863,754,0.0111965,
752,0.00264752,752,0.0589009,752,0.0713891,752,0.0630647,752,0.0117373,
750,0.00259345,750,0.0609866,750,0.0741722,750,0.0657766,750,0.0120543,
748,0.00265361,748,0.0630798,748,0.0771749,748,0.0686006,748,0.0126734,
746,0.00280813,746,0.0653921,746,0.0802814,746,0.0716464,746,0.0130974,
744,0.00260788,744,0.0673968,744,0.0834787,744,0.0748122,744,0.0135676,
742,0.00263499,742,0.0698433,742,0.0871381,742,0.0782165,742,0.0141798,
740,0.00264194,740,0.07224,740,0.0906491,740,0.0816279,740,0.0146901,
738,0.00271029,738,0.07479,738,0.0944777,738,0.0853807,738,0.015339,
736,0.00271354,736,0.0775138,736,0.0986451,736,0.0892649,736,0.0158206,
734,0.0026889,734,0.0802964,734,0.102859,734,0.0934344,734,0.0166122,
732,0.0027366,732,0.0830376,732,0.107252,732,0.0977498,732,0.0170932,
730,0.00253885,730,0.0859867,730,0.111855,730,0.102126,730,0.0178137,
728,0.00271229,728,0.0890879,728,0.116785,728,0.106997,728,0.0185716,
726,0.00279472,726,0.0922133,726,0.121956,726,0.112112,726,0.0192441,
724,0.00266054,724,0.0953894,724,0.127321,724,0.117282,724,0.0200213,
722,0.002770697,722,0.0987665,722,0.132874,722,0.122813,722,0.0207647,
720,0.0027323,720,0.102269,720,0.138728,720,0.128596,720,0.0215688,
718,0.00277283,718,0.105999,718,0.144898,718,0.134726,718,0.0224187,
716,0.00274053,716,0.109691,716,0.151321,716,0.141103,716,0.0232744,
714,0.00288682,714,0.113661,714,0.158178,714,0.147972,714,0.0243767,
712,0.00282478,712,0.117667,712,0.165144,712,0.154842,712,0.0252058,
710,0.00273089,710,0.121711,710,0.172167,710,0.161954,710,0.0261769,
708,0.00271352,708,0.125895,708,0.179619,708,0.169534,708,0.0271395,
706,0.00277955,706,0.130285,706,0.187467,706,0.17738,706,0.0281671,
704,0.00275887,704,0.134742,704,0.195507,704,0.185425,704,0.0292406,
702,0.00271211,702,0.139237,702,0.203804,702,0.193849,702,0.0302888,
700,0.00281759,700,0.144118,700,0.212476,700,0.202679,700,0.0314677,
698,0.00274389,698,0.148804,698,0.221197,698,0.211528,698,0.0325853,
696,0.00275978,696,0.153814,696,0.230326,696,0.220796,696,0.0337787,
694,0.00283664,694,0.158888,694,0.239834,694,0.230593,694,0.0349838,
692,0.00284086,692,0.164069,692,0.249455,692,0.240351,692,0.0362212,
690,0.00272558,690,0.169226,690,0.259248,690,0.250384,690,0.0373947,
688,0.00281507,688,0.174615,688,0.269441,688,0.260798,688,0.0387139,
686,0.00288495,686,0.180115,686,0.279621,686,0.271345,686,0.0400557,
684,0.00286728,684,0.185534,684,0.290097,684,0.282205,684,0.0413722,
682,0.00296342,682,0.191207,682,0.300985,682,0.293197,682,0.0428281,
680,0.00288187,680,0.196855,680,0.311971,680,0.304566,680,0.0441347,
678,0.00294559,678,0.202643,678,0.323102,678,0.316137,678,0.045532,
676,0.00300929,676,0.208448,676,0.334438,676,0.327728,676,0.0470161,
674,0.00293889,674,0.214421,674,0.345853,674,0.339517,674,0.0485147,
672,0.00300218,672,0.220439,672,0.357582,672,0.351614,672,0.0499197,
670,0.00304161,670,0.226387,670,0.369332,670,0.363777,670,0.0513872,
668,0.00293908,668,0.23239,668,0.38113,668,0.376057,668,0.0527919,
666,0.00297869,666,0.238497,666,0.393083,666,0.388521,666,0.054369,
664,0.00304722,664,0.244612,664,0.405075,664,0.400902,664,0.0558766,
662,0.00301132,662,0.250694,662,0.417294,662,0.413634,662,0.0573913,
660,0.00293647,660,0.256864,660,0.42959,660,0.426248,660,0.0588792,
658,0.00295688,658,0.263029,658,0.441968,658,0.439138,658,0.0604382,
656,0.00294966,656,0.269341,656,0.454383,656,0.452141,656,0.0620086,
654,0.0029941,654,0.275553,654,0.466856,654,0.465211,654,0.0636135,
652,0.00293316,652,0.28178,652,0.479281,652,0.478183,652,0.0650972,
650,0.00293592,650,0.288082,650,0.491966,650,0.49142,650,0.0666757,
648,0.00294583,648,0.294263,648,0.504645,648,0.504632,648,0.0683314,
646,0.0030242,646,0.300447,646,0.517264,646,0.517891,646,0.0699652,
644,0.00300442,644,0.306983,644,0.529879,644,0.531093,644,0.0714635,
642,0.00316924,642,0.31318,642,0.542561,642,0.544435,642,0.073189,
640,0.00312454,640,0.319425,640,0.555191,640,0.557701,640,0.0747137,
638,0.00311354,638,0.325505,638,0.567934,638,0.570997,638,0.0762902,
636,0.00311187,636,0.331629,636,0.580624,636,0.584352,636,0.0778651,
634,0.0031616,634,0.337759,634,0.593279,634,0.597734,634,0.0795782,
632,0.00319896,632,0.34388,632,0.606047,632,0.611188,632,0.0811185,
630,0.00319242,630,0.3498,630,0.618681,630,0.624411,630,0.0826334,
628,0.00327123,628,0.355725,628,0.631314,628,0.637883,628,0.0842527,
626,0.00329882,626,0.361547,626,0.643789,626,0.651102,626,0.0856902,
624,0.00333159,624,0.367351,624,0.656273,624,0.664418,624,0.0872964,
622,0.00334296,622,0.373,622,0.668495,622,0.677401,622,0.0887702,
620,0.00344888,620,0.378656,620,0.680688,620,0.690488,620,0.0902471,
618,0.00353171,618,0.384235,618,0.692928,618,0.70362,618,0.0917471,
616,0.00359742,616,0.389713,616,0.704961,616,0.716438,616,0.0932339,
614,0.00365138,614,0.395098,614,0.716804,614,0.729248,614,0.0947651,
612,0.00368767,612,0.400286,612,0.728499,612,0.741945,612,0.0961674,
610,0.00386332,610,0.40534,610,0.739865,610,0.754278,610,0.0975363,
608,0.00388187,608,0.410382,608,0.751137,608,0.766667,608,0.0988327,
606,0.00397919,606,0.415148,606,0.762083,606,0.778689,606,0.100195,
604,0.0041395,604,0.419726,604,0.772638,604,0.790379,604,0.101505,
602,0.00443232,602,0.42439,602,0.783139,602,0.802012,602,0.102795,
600,0.00457204,600,0.428647,600,0.793195,600,0.813046,600,0.104005,
598,0.00467717,598,0.432837,598,0.802814,598,0.823914,598,0.105228,
596,0.00494616,596,0.436865,596,0.812246,596,0.834467,596,0.106556,
594,0.00510847,594,0.440805,594,0.821322,594,0.84472,594,0.107776,
592,0.00541047,592,0.444497,592,0.830093,592,0.85458,592,0.10905,
590,0.00573898,590,0.448032,590,0.838265,590,0.863939,590,0.110301,
588,0.00606029,588,0.451291,588,0.846043,588,0.872847,588,0.111532,
586,0.00656857,586,0.454569,586,0.853584,586,0.881491,586,0.112886,
584,0.00711708,584,0.45756,584,0.860353,584,0.889557,584,0.114194,
582,0.0078048,582,0.460261,582,0.866752,582,0.896949,582,0.115521,
580,0.00855365,580,0.462902,580,0.872486,580,0.903966,580,0.116947,
578,0.00962431,578,0.465467,578,0.87792,578,0.910306,578,0.11844,
576,0.0106475,576,0.467771,576,0.88275,576,0.916189,576,0.119967,
574,0.0121101,574,0.469935,574,0.886834,574,0.921437,574,0.121604,
572,0.0137956,572,0.47206,572,0.890672,572,0.926112,572,0.123553,
570,0.0157137,570,0.473922,570,0.893779,570,0.930173,570,0.125545,
568,0.0183668,568,0.475862,568,0.896427,568,0.933504,568,0.127991,
566,0.0211994,566,0.47767,566,0.89851,566,0.936393,566,0.130588,
564,0.0246515,564,0.479396,564,0.900008,564,0.938747,564,0.133614,
562,0.0286675,562,0.481242,562,0.900891,562,0.940507,562,0.137059,
560,0.0335458,560,0.483102,560,0.901342,560,0.941748,560,0.141079,
558,0.0392224,558,0.48502,558,0.901226,558,0.94232,558,0.145685,
556,0.0461127,556,0.487108,556,0.900766,556,0.942463,556,0.151117,
554,0.0541318,554,0.489366,554,0.899616,554,0.94198,554,0.157403,
552,0.0635797,552,0.491849,552,0.898055,552,0.940938,552,0.164675,
550,0.0744447,550,0.494614,550,0.895898,550,0.939407,550,0.173036,
548,0.0872983,548,0.497789,548,0.893315,548,0.937392,548,0.182649,
546,0.101743,546,0.501461,546,0.890439,546,0.93489,546,0.193602,
544,0.118329,544,0.505599,544,0.886909,544,0.93182,544,0.206059,
542,0.136829,542,0.510176,542,0.883179,542,0.928375,542,0.219953,
540,0.15715,540,0.515126,540,0.878832,540,0.924327,540,0.235199,
538,0.17955,538,0.520839,538,0.874162,538,0.919888,538,0.252051,
536,0.203774,536,0.526932,536,0.869233,536,0.915089,536,0.270269,
534,0.229922,534,0.533464,534,0.863829,534,0.909841,534,0.289831,
532,0.257171,532,0.540457,532,0.85788,532,0.903934,532,0.310342,
530,0.285675,530,0.547732,530,0.851646,530,0.89768,530,0.332177,
528,0.315309,528,0.555349,528,0.845026,528,0.890842,528,0.354394,
526,0.34545,526,0.563136,526,0.838213,526,0.883806,526,0.377093,
524,0.375634,524,0.570959,524,0.830953,524,0.87627,524,0.399979,
522,0.406026,522,0.578977,522,0.823278,522,0.868213,522,0.4232,
520,0.435898,520,0.586703,520,0.815404,520,0.85978,520,0.446037,
518,0.465255,518,0.594316,518,0.807091,518,0.851077,518,0.468463,
516,0.494186,516,0.601845,516,0.798572,516,0.841976,516,0.49078,
514,0.522466,514,0.60913,514,0.789814,514,0.832661,514,0.51254,
512,0.550191,512,0.616266,512,0.780819,512,0.82293,512,0.533989,
510,0.577471,510,0.623161,510,0.771364,510,0.812882,510,0.555059,
508,0.604501,508,0.62991,508,0.761705,508,0.802492,508,0.576001,
506,0.630669,506,0.63641,506,0.751912,506,0.791858,506,0.596267,
504,0.656646,504,0.642828,504,0.741923,504,0.780883,504,0.616415,
502,0.682375,502,0.649118,502,0.731631,502,0.769738,502,0.636475,
500,0.707477,500,0.655275,500,0.721297,500,0.758384,500,0.655852,
498,0.732007,498,0.661234,498,0.710799,498,0.74689,498,0.675164,
496,0.756042,496,0.666988,496,0.700213,496,0.735122,496,0.693943,
494,0.778924,494,0.672445,494,0.68962,494,0.723331,494,0.711941,
492,0.800934,492,0.677689,492,0.678859,492,0.711426,492,0.729398,
490,0.821698,490,0.682611,490,0.668112,490,0.699483,490,0.746069,
488,0.841094,488,0.687093,488,0.657382,488,0.687287,488,0.761541,
486,0.858713,486,0.691066,486,0.64655,486,0.675116,486,0.775724,
484,0.874498,484,0.694514,484,0.635918,484,0.663082,484,0.788471,
482,0.888255,482,0.697132,482,0.625127,482,0.650808,482,0.799855,
480,0.900202,480,0.699316,480,0.614568,480,0.638659,480,0.809757,
478,0.910029,478,0.700818,478,0.604061,478,0.6267,478,0.818018,
476,0.918004,476,0.701631,476,0.593815,476,0.614804,476,0.824884,
474,0.923929,474,0.701704,474,0.583521,474,0.603113,474,0.830077,
472,0.928293,472,0.701388,472,0.573427,472,0.591663,472,0.834001,
470,0.931064,470,0.700414,470,0.563642,470,0.580374,470,0.836723,
468,0.932313,468,0.698968,468,0.554097,468,0.569351,468,0.83821,
466,0.931982,466,0.696903,466,0.544691,466,0.558592,466,0.838463,
464,0.930624,464,0.694596,464,0.535675,464,0.548241,464,0.83786,
462,0.927796,462,0.691749,462,0.526863,462,0.538108,462,0.836098,
460,0.923831,460,0.68862,460,0.518649,460,0.528657,460,0.833397,
458,0.918542,458,0.685157,458,0.510557,458,0.519445,458,0.829795,
456,0.912159,456,0.68136,456,0.503059,456,0.510735,456,0.8252,
454,0.904722,454,0.677315,454,0.496046,454,0.502682,454,0.819807,
452,0.895925,452,0.672825,452,0.489336,452,0.494933,452,0.813447,
450,0.886174,450,0.668126,450,0.483175,450,0.487781,450,0.806195,
448,0.875673,448,0.663014,448,0.477393,448,0.481144,448,0.798142,
446,0.863892,446,0.657791,446,0.472107,446,0.475007,446,0.789254,
444,0.851442,444,0.652265,444,0.467415,444,0.469603,444,0.779781,
442,0.838108,442,0.646639,442,0.463241,442,0.464856,442,0.769611,
440,0.824271,440,0.640796,440,0.459688,440,0.460881,440,0.759028,
438,0.810231,438,0.635198,438,0.456871,438,0.457723,438,0.748252,
436,0.795416,436,0.629023,436,0.454211,436,0.454858,436,0.736566,
434,0.780573,434,0.623008,434,0.452291,434,0.452948,434,0.725002,
432,0.765895,432,0.617268,432,0.451152,432,0.452025,432,0.713515,
430,0.750612,430,0.611234,430,0.450204,430,0.45143,430,0.701577,
428,0.735576,428,0.605276,428,0.449711,428,0.451579,428,0.689587,
426,0.720802,426,0.599753,426,0.45005,426,0.452798,426,0.678058,
424,0.705757,424,0.593902,424,0.450489,424,0.454484,424,0.666086,
422,0.690869,422,0.588316,422,0.451602,422,0.45705,422,0.654379,
420,0.676483,420,0.582924,420,0.453187,420,0.460316,420,0.643021,
418,0.6623,418,0.577678,418,0.455163,418,0.464539,418,0.631887,
416,0.648406,416,0.572645,416,0.457518,416,0.469537,416,0.620887,
414,0.635178,414,0.567958,414,0.460571,414,0.475188,414,0.610432,
412,0.622222,412,0.563537,412,0.463894,412,0.481674,412,0.600263,
410,0.609965,410,0.559323,410,0.467549,410,0.488834,410,0.590691,
408,0.598246,408,0.555535,408,0.471619,408,0.496652,408,0.581529,
406,0.587225,406,0.552211,406,0.476127,406,0.505315,406,0.573035,
404,0.576885,404,0.54912,404,0.480691,404,0.514268,404,0.565073,
402,0.567562,402,0.546817,402,0.486167,402,0.524331,402,0.558061,
400,0.558921,400,0.544888,400,0.491421,400,0.534613,400,0.55162,
398,0.551542,398,0.543754,398,0.497402,398,0.545735,398,0.546311,
396,0.544871,396,0.542976,396,0.503433,396,0.557217,396,0.541667,
394,0.53943,394,0.543166,394,0.510039,394,0.569582,394,0.5383,
392,0.535092,392,0.543958,392,0.516901,392,0.582573,392,0.535776,
390,0.532259,390,0.545595,390,0.524254,390,0.596014,390,0.534633,
388,0.530886,388,0.54817,388,0.531973,388,0.610417,388,0.534633,
386,0.531212,386,0.551748,386,0.540174,386,0.62542,386,0.536216,
384,0.533492,384,0.556351,384,0.548818,384,0.641234,384,0.539437,
382,0.537424,382,0.56182,382,0.557619,382,0.657701,382,0.544066,
380,0.543783,380,0.56869,380,0.566912,380,0.674739,380,0.550692,
378,0.551822,378,0.576304,378,0.576012,378,0.691916,378,0.558868,
376,0.561931,376,0.584912,376,0.585108,376,0.709071,376,0.56862,
374,0.573449,374,0.594052,374,0.593709,374,0.725774,374,0.579406,
372,0.586223,372,0.603772,372,0.601724,372,0.742219,372,0.591353,
370,0.599604,370,0.613146,370,0.608353,370,0.757284,370,0.603636,
368,0.612778,368,0.621785,368,0.613504,368,0.770702,368,0.615498,
366,0.625185,366,0.629011,366,0.616459,366,0.782009,366,0.626227,
364,0.635942,364,0.634402,364,0.61697,364,0.79087,364,0.635242,
362,0.644766,362,0.637433,362,0.614604,362,0.797454,362,0.642438,
360,0.651366,360,0.637772,360,0.609197,360,0.801031,360,0.646994,
358,0.655431,358,0.635235,358,0.600922,358,0.802538,358,0.64923,
356,0.657242,356,0.630617,356,0.590163,356,0.801642,356,0.648998,
354,0.657015,354,0.623672,354,0.577484,354,0.798657,354,0.646744,
352,0.654804,352,0.615307,352,0.56362,352,0.793492,352,0.64269,
350,0.650759,350,0.606157,350,0.549639,350,0.786546,350,0.637067,
348,0.644897,348,0.596127,348,0.536013,348,0.777829,348,0.62987,
346,0.636939,346,0.585693,346,0.52355,346,0.768511,346,0.621099,
344,0.626964,344,0.574914,344,0.512717,344,0.759066,344,0.6106,
342,0.614836,342,0.563367,342,0.503854,342,0.750629,342,0.598326,
340,0.60006,340,0.551387,340,0.496361,340,0.743723,340,0.584096,
338,0.583015,338,0.538561,338,0.491186,338,0.73883,338,0.568127,
336,0.56413,336,0.525073,336,0.486828,336,0.734716,336,0.550322,
334,0.543709,334,0.511723,334,0.484382,334,0.731409,334,0.531854,
332,0.522342,332,0.498491,332,0.482658,332,0.727886,332,0.512547,
330,0.500559,330,0.485426,330,0.48206,330,0.722741,330,0.492893,
328,0.478058,328,0.472273,328,0.481429,328,0.716153,328,0.473172,
326,0.455666,326,0.459234,326,0.480257,326,0.707281,326,0.453053,
324,0.433383,324,0.445842,324,0.478777,324,0.697615,324,0.433067,
322,0.410764,322,0.431689,322,0.475706,322,0.687032,322,0.41292,
320,0.388156,320,0.416613,320,0.470677,320,0.675629,320,0.392313,
318,0.36696,318,0.401951,318,0.464581,318,0.663999,318,0.372732,
316,0.346103,316,0.386779,316,0.456427,316,0.651008,316,0.353588,
314,0.326048,314,0.371071,314,0.44626,314,0.636339,314,0.334632,
312,0.307536,312,0.356337,312,0.435541,312,0.620743,312,0.317317,
310,0.289527,310,0.341275,310,0.423316,310,0.603758,310,0.300059,
308,0.273474,308,0.327095,308,0.410557,308,0.58669,308,0.284294,
306,0.25821,306,0.312888,306,0.396805,306,0.56946,306,0.269115,
304,0.244522,304,0.298807,304,0.38341,304,0.553543,304,0.25529,
302,0.232387,302,0.28628,302,0.370214,302,0.538171,302,0.24321,
300,0.22166,300,0.274575,300,0.357721,300,0.523589,300,0.232258,

t=0hrs FeCl3 0uM,
t=0hrs FeCl3 0uM
Collection Time: 2024-09-11 10:39:09 AM
Operator Name  :
Scan Version 6.4.0.1610
Parameter List :
Instrument  Cary 7000
Instrument Version  3.07
Method Log     :
Method Name    :
Date/Time stamp: 2024-09-11 10:17:34 AM
Method Modifications:
ConcentrationReportSelected Changed: 2024-09-11 10:17:35 AM, Old:Choice 0, New:Choice 1
ConcentrationReportSelected Changed: 2024-09-11 10:17:35 AM, Old:ON, New:Choice 0
MCAReportSelected Changed: 2024-09-11 10:17:35 AM, Old:Choice 0, New:Choice 1
MCAReportSelected Changed: 2024-09-11 10:17:35 AM, Old:ON, New:Choice 0
X Start nm Changed: 2024-09-11 10:27:39 AM, Old:800.000, New:1400.000
X Stop nm Changed: 2024-09-11 10:27:39 AM, Old:200.000, New:300.000
UVVIS Scan Rate nm Changed: 2024-09-11 10:27:39 AM, Old:  602.007, New:  600.000
NIR Scan Rate nm Changed: 2024-09-11 10:27:39 AM, Old:    0.004, New:   12.000
Common Interval nm Changed: 2024-09-11 10:27:39 AM, Old:    1.000, New:    0.667
Source changeover Changed: 2024-09-11 10:27:39 AM, Old:   350.00, New:   300.00
Detector changeover Changed: 2024-09-11 10:27:39 AM, Old:   800.00, New:   900.00
Grating changeover Changed: 2024-09-11 10:27:39 AM, Old:   800.00, New:   900.00
Baseline Correction Changed: 2024-09-11 10:27:39 AM, Old:0, New:2
Sipper Type Changed: 2024-09-11 10:27:39 AM, Old:Internal RSA, New:External sipper
End Method Modifications
<Current Wavelength> , 300.000
<SBW (nm)> , 2.00
<Energy> , 57.54
<Slit Height> , Full

t=0hrs FeCl3 20uM,
t=0hrs FeCl3 20uM
Collection Time: 2024-09-11 10:50:47 AM
Operator Name  :
Scan Version 6.4.0.1610
Parameter List :
Instrument  Cary 7000
Instrument Version  3.07
Method Log     :
Method Name    :
Date/Time stamp: 2024-09-11 10:17:34 AM
Method Modifications:
ConcentrationReportSelected Changed: 2024-09-11 10:17:35 AM, Old:Choice 0, New:Choice 1
ConcentrationReportSelected Changed: 2024-09-11 10:17:35 AM, Old:ON, New:Choice 0
MCAReportSelected Changed: 2024-09-11 10:17:35 AM, Old:Choice 0, New:Choice 1
MCAReportSelected Changed: 2024-09-11 10:17:35 AM, Old:ON, New:Choice 0
X Start nm Changed: 2024-09-11 10:27:39 AM, Old:800.000, New:1400.000
X Stop nm Changed: 2024-09-11 10:27:39 AM, Old:200.000, New:300.000
UVVIS Scan Rate nm Changed: 2024-09-11 10:27:39 AM, Old:  602.007, New:  600.000
NIR Scan Rate nm Changed: 2024-09-11 10:27:39 AM, Old:    0.004, New:   12.000
Common Interval nm Changed: 2024-09-11 10:27:39 AM, Old:    1.000, New:    0.667
Source changeover Changed: 2024-09-11 10:27:39 AM, Old:   350.00, New:   300.00
Detector changeover Changed: 2024-09-11 10:27:39 AM, Old:   800.00, New:   900.00
Grating changeover Changed: 2024-09-11 10:27:39 AM, Old:   800.00, New:   900.00
Baseline Correction Changed: 2024-09-11 10:27:39 AM, Old:0, New:2
Sipper Type Changed: 2024-09-11 10:27:39 AM, Old:Internal RSA, New:External sipper
End Method Modifications
<Current Wavelength> , 300.000
<SBW (nm)> , 2.00
<Energy> , 63.10
<Slit Height> , Full

t=0hrs FeCl3 50uM,
t=0hrs FeCl3 50uM
Collection Time: 2024-09-11 10:56:57 AM
Operator Name  :
Scan Version 6.4.0.1610
Parameter List :
Instrument  Cary 7000
Instrument Version  3.07
Method Log     :
Method Name    :
Date/Time stamp: 2024-09-11 10:17:34 AM
Method Modifications:
ConcentrationReportSelected Changed: 2024-09-11 10:17:35 AM, Old:Choice 0, New:Choice 1
ConcentrationReportSelected Changed: 2024-09-11 10:17:35 AM, Old:ON, New:Choice 0
MCAReportSelected Changed: 2024-09-11 10:17:35 AM, Old:Choice 0, New:Choice 1
MCAReportSelected Changed: 2024-09-11 10:17:35 AM, Old:ON, New:Choice 0
X Start nm Changed: 2024-09-11 10:27:39 AM, Old:800.000, New:1400.000
X Stop nm Changed: 2024-09-11 10:27:39 AM, Old:200.000, New:300.000
UVVIS Scan Rate nm Changed: 2024-09-11 10:27:39 AM, Old:  602.007, New:  600.000
NIR Scan Rate nm Changed: 2024-09-11 10:27:39 AM, Old:    0.004, New:   12.000
Common Interval nm Changed: 2024-09-11 10:27:39 AM, Old:    1.000, New:    0.667
Source changeover Changed: 2024-09-11 10:27:39 AM, Old:   350.00, New:   300.00
Detector changeover Changed: 2024-09-11 10:27:39 AM, Old:   800.00, New:   900.00
Grating changeover Changed: 2024-09-11 10:27:39 AM, Old:   800.00, New:   900.00
Baseline Correction Changed: 2024-09-11 10:27:39 AM, Old:0, New:2
Sipper Type Changed: 2024-09-11 10:27:39 AM, Old:Internal RSA, New:External sipper
End Method Modifications
<Current Wavelength> , 300.000
<SBW (nm)> , 2.00
<Energy> , 72.44
<Slit Height> , Full

t=0hrs FeCl3 100uM,
t=0hrs FeCl3 100uM
Collection Time: 2024-09-11 11:03:03 AM
Operator Name  :
Scan Version 6.4.0.1610
Parameter List :
Instrument  Cary 7000
Instrument Version  3.07
Method Log     :
Method Name    :
Date/Time stamp: 2024-09-11 10:17:34 AM
Method Modifications:
ConcentrationReportSelected Changed: 2024-09-11 10:17:35 AM, Old:Choice 0, New:Choice 1
ConcentrationReportSelected Changed: 2024-09-11 10:17:35 AM, Old:ON, New:Choice 0
MCAReportSelected Changed: 2024-09-11 10:17:35 AM, Old:Choice 0, New:Choice 1
MCAReportSelected Changed: 2024-09-11 10:17:35 AM, Old:ON, New:Choice 0
X Start nm Changed: 2024-09-11 10:27:39 AM, Old:800.000, New:1400.000
X Stop nm Changed: 2024-09-11 10:27:39 AM, Old:200.000, New:300.000
UVVIS Scan Rate nm Changed: 2024-09-11 10:27:39 AM, Old:  602.007, New:  600.000
NIR Scan Rate nm Changed: 2024-09-11 10:27:39 AM, Old:    0.004, New:   12.000
Common Interval nm Changed: 2024-09-11 10:27:39 AM, Old:    1.000, New:    0.667
Source changeover Changed: 2024-09-11 10:27:39 AM, Old:   350.00, New:   300.00
Detector changeover Changed: 2024-09-11 10:27:39 AM, Old:   800.00, New:   900.00
Grating changeover Changed: 2024-09-11 10:27:39 AM, Old:   800.00, New:   900.00
Baseline Correction Changed: 2024-09-11 10:27:39 AM, Old:0, New:2
Sipper Type Changed: 2024-09-11 10:27:39 AM, Old:Internal RSA, New:External sipper
End Method Modifications
<Current Wavelength> , 298.667
<SBW (nm)> , 2.00
<Energy> , 72.44
<Slit Height> , Full

t=0hrs FeCl3 5uM repeat,
t=0hrs FeCl3 5uM repeat
Collection Time: 2024-09-11 11:10:06 AM
Operator Name  :
Scan Version 6.4.0.1610
Parameter List :
Instrument  Cary 7000
Instrument Version  3.07
Method Log     :
Method Name    :
Date/Time stamp: 2024-09-11 10:17:34 AM
Method Modifications:
ConcentrationReportSelected Changed: 2024-09-11 10:17:35 AM, Old:Choice 0, New:Choice 1
ConcentrationReportSelected Changed: 2024-09-11 10:17:35 AM, Old:ON, New:Choice 0
MCAReportSelected Changed: 2024-09-11 10:17:35 AM, Old:Choice 0, New:Choice 1
MCAReportSelected Changed: 2024-09-11 10:17:35 AM, Old:ON, New:Choice 0
X Start nm Changed: 2024-09-11 10:27:39 AM, Old:800.000, New:1400.000
X Stop nm Changed: 2024-09-11 10:27:39 AM, Old:200.000, New:300.000
UVVIS Scan Rate nm Changed: 2024-09-11 10:27:39 AM, Old:  602.007, New:  600.000
NIR Scan Rate nm Changed: 2024-09-11 10:27:39 AM, Old:    0.004, New:   12.000
Common Interval nm Changed: 2024-09-11 10:27:39 AM, Old:    1.000, New:    0.667
Source changeover Changed: 2024-09-11 10:27:39 AM, Old:   350.00, New:   300.00
Detector changeover Changed: 2024-09-11 10:27:39 AM, Old:   800.00, New:   900.00
Grating changeover Changed: 2024-09-11 10:27:39 AM, Old:   800.00, New:   900.00
Baseline Correction Changed: 2024-09-11 10:27:39 AM, Old:0, New:2
Sipper Type Changed: 2024-09-11 10:27:39 AM, Old:Internal RSA, New:External sipper
End Method Modifications
<Current Wavelength> , 300.000
<SBW (nm)> , 2.00
<Energy> , 57.54
<Slit Height> , Full