File: UV-Vis data/2024_09/2024_09_06_non-imine 48hrs post neutralization.csv
non-imine polymer 0.0% TFA,,non-imine polymer 0.017% TFA,,non-imine polymer 0.05% TFA,,non-imine polymer 0.1% TFA,,non-imine polymer 0.25% TFA,,non-imine polymer 0.5% TFA,,non-imine polymer 1.0% TFA,,
Wavelength (nm),Abs,Wavelength (nm),Abs,Wavelength (nm),Abs,Wavelength (nm),Abs,Wavelength (nm),Abs,Wavelength (nm),Abs,Wavelength (nm),Abs,
1400,0.00158348,1400,0.003395,1400,0.00310285,1400,0.00650816,1400,0.00404143,1400,0.0086148,1400,0.00811045,
1396.67,0.000839361,1396.67,0.00217502,1396.67,0.00209851,1396.67,0.00618612,1396.67,0.00322788,1396.67,0.00750459,1396.67,0.00683961,
1393.33,0.000423572,1393.33,0.00141152,1393.33,0.00146923,1393.33,0.00610447,1393.33,0.00291049,1393.33,0.00702609,1393.33,0.00630968,
1390,0.000208976,1390,0.00106283,1390,0.00117056,1390,0.0053683,1390,0.0028283,1390,0.00706564,1390,0.00631218,
1386.67,0.000152236,1386.67,0.000943403,1386.67,0.00105645,1386.67,0.00465715,1386.67,0.00269937,1386.67,0.00686462,1386.67,0.00622367,
1383.33,0.000184865,1383.33,0.000879693,1383.33,0.00100479,1383.33,0.00425607,1383.33,0.00252627,1383.33,0.00648204,1383.33,0.00611101,
1380,9.04291e-05,1380,0.000773462,1380,0.000850306,1380,0.00378184,1380,0.00210028,1380,0.00571836,1380,0.00548428,
1376.67,8.51214e-05,1376.67,0.000767316,1376.67,0.000760393,1376.67,0.00362768,1376.67,0.00192089,1376.67,0.00519138,1376.67,0.00506994,
1373.33,8.62347e-05,1373.33,0.00075321,1373.33,0.000747375,1373.33,0.0032789,1373.33,0.00196382,1373.33,0.00513697,1373.33,0.00496208,
1370,4.48109e-05,1370,0.000750694,1370,0.000725983,1370,0.00297525,1370,0.00205799,1370,0.00555247,1370,0.00547927,
1366.67,3.09866e-05,1366.67,0.000645506,1366.67,0.000619945,1366.67,0.00275272,1366.67,0.00189481,1366.67,0.00532948,1366.67,0.00545773,
1363.33,-2.17954e-05,1363.33,0.000538036,1363.33,0.000499472,1363.33,0.00244257,1363.33,0.00159286,1363.33,0.00447155,1363.33,0.00453587,
1360,-7.91521e-05,1360,0.000447955,1360,0.000402506,1360,0.00246655,1360,0.00157317,1360,0.00414679,1360,0.00407333,
1356.67,-0.000188409,1356.67,0.00026378,1356.67,0.000200792,1356.67,0.00198337,1356.67,0.00122229,1356.67,0.00374918,1356.67,0.00368694,
1353.33,-0.000286204,1353.33,8.84873e-05,1353.33,4.14972e-05,1353.33,0.00137659,1353.33,0.0010482,1353.33,0.00353789,1353.33,0.00351994,
1350,-0.000354907,1350,-6.70912e-05,1350,-0.000147111,1350,0.000790189,1350,0.000776574,1350,0.0029557,1350,0.00289795,
1346.67,-0.000366908,1346.67,-0.000191203,1346.67,-0.000272959,1346.67,0.000254741,1346.67,0.000301573,1346.67,0.00198975,1346.67,0.00167666,
1343.33,-0.000471386,1343.33,-0.000296655,1343.33,-0.000443769,1343.33,-3.29775e-05,1343.33,-4.97008e-06,1343.33,0.0013264,1343.33,0.000862237,
1340,-0.000485143,1340,-0.000381754,1340,-0.000495951,1340,-0.000120819,1340,-0.000102652,1340,0.00110334,1340,0.000577537,
1336.67,-0.000473403,1336.67,-0.00037596,1336.67,-0.000486953,1336.67,-0.000179715,1336.67,-0.000147214,1336.67,0.00100795,1336.67,0.000427173,
1333.33,-0.000476765,1333.33,-0.000383668,1333.33,-0.000527288,1333.33,-0.000283204,1333.33,-0.000233015,1333.33,0.000796413,1333.33,0.000149854,
1330,-0.000474696,1330,-0.000404409,1330,-0.000511102,1330,-0.000238137,1330,-0.000208073,1330,0.000838894,1330,0.000220915,
1326.67,-0.000444442,1326.67,-0.000344354,1326.67,-0.000468697,1326.67,-0.000197517,1326.67,-0.000191669,1326.67,0.000870874,1326.67,0.000238967,
1323.33,-0.000425926,1323.33,-0.000350665,1323.33,-0.000494296,1323.33,-0.000273735,1323.33,-0.000237103,1323.33,0.000723157,1323.33,4.05134e-05,
1320,-0.000437408,1320,-0.000328679,1320,-0.000471231,1320,-0.00024978,1320,-0.000191566,1320,0.000758111,1320,9.27593e-05,
1316.67,-0.000412168,1316.67,-0.00032842,1316.67,-0.00043265,1316.67,-0.000216456,1316.67,-0.000176196,1316.67,0.00080051,1316.67,0.000156328,
1313.33,-0.00039722,1313.33,-0.000331628,1313.33,-0.000450493,1313.33,-0.000192704,1313.33,-0.000176869,1313.33,0.000780853,1313.33,0.000135586,
1310,-0.000386771,1310,-0.00036189,1310,-0.000456078,1310,-0.000168744,1310,-0.00016538,1310,0.000778104,1310,0.000112826,
1306.67,-0.000372288,1306.67,-0.000364942,1306.67,-0.000450803,1306.67,-0.00015327,1306.67,-0.000170141,1306.67,0.000747557,1306.67,3.87271e-05,
1303.33,-0.000399909,1303.33,-0.000393495,1303.33,-0.000491607,1303.33,-0.000195395,1303.33,-0.000231669,1303.33,0.000645791,1303.33,-6.41407e-05,
1300,-0.000396392,1300,-0.000360701,1300,-0.000456647,1300,-0.000113883,1300,-0.000204296,1300,0.00068665,1300,-2.6817e-05,
1296.67,-0.000384857,1296.67,-0.000364994,1296.67,-0.00043477,1296.67,-1.46512e-05,1296.67,-0.000109432,1296.67,0.000745379,1296.67,0.000100061,
1293.33,-0.000369753,1293.33,-0.000327282,1293.33,-0.000416564,1293.33,0.000107207,1293.33,-0.000111761,1293.33,0.000747349,1293.33,0.000119273,
1290,-0.000371201,1290,-0.000341198,1290,-0.000392823,1290,0.000182483,1290,-0.000110571,1290,0.000775018,1290,0.000140117,
1286.67,-0.000336801,1286.67,-0.000305761,1286.67,-0.000348234,1286.67,0.000291108,1286.67,-4.73687e-05,1286.67,0.000801133,1286.67,0.000194939,
1283.33,-0.000344923,1283.33,-0.000297587,1283.33,-0.000370374,1283.33,0.000331907,1283.33,-8.56223e-05,1283.33,0.000777974,1283.33,0.000156509,
1280,-0.00033618,1280,-0.000291792,1280,-0.000370322,1280,0.000409683,1280,-7.43899e-05,1280,0.000788529,1280,0.000179194,
1276.67,-0.000359511,1276.67,-0.000300018,1276.67,-0.000373012,1276.67,0.000447177,1276.67,-7.43381e-05,1276.67,0.000747972,1276.67,0.000162594,
1273.33,-0.000363339,1273.33,-0.000301208,1273.33,-0.000383719,1273.33,0.00050564,1273.33,-6.85406e-05,1273.33,0.000748387,1273.33,0.00015581,
1270,-0.000355631,1270,-0.000286101,1270,-0.000344871,1270,0.000527669,1270,-4.39522e-05,1270,0.000757877,1270,0.000188413,
1266.67,-0.000363184,1266.67,-0.000288688,1266.67,-0.000346009,1266.67,0.00052233,1266.67,-6.18113e-05,1266.67,0.000763452,1266.67,0.00018515,
1263.33,-0.000350199,1263.33,-0.000313263,1263.33,-0.000352579,1263.33,0.000521579,1263.33,-5.42536e-05,1263.33,0.000769132,1263.33,0.000165158,
1260,-0.000373115,1260,-0.000308399,1260,-0.000343061,1260,0.000494082,1260,-4.12603e-05,1260,0.000746364,1260,0.000175491,
1256.67,-0.000359873,1256.67,-0.000310055,1256.67,-0.000342026,1256.67,0.000454977,1256.67,-5.04747e-05,1256.67,0.000748542,1256.67,0.000162361,
1253.33,-0.000358735,1253.33,-0.000272959,1253.33,-0.000318281,1253.33,0.000449976,1253.33,-4.46251e-05,1253.33,0.000779971,1253.33,0.000171761,
1250,-0.000382064,1250,-0.000295207,1250,-0.000357493,1250,0.00039849,1250,-4.48322e-05,1250,0.000809743,1250,0.000142474,
1246.67,-0.000406116,1246.67,-0.000328162,1246.67,-0.000372598,1246.67,0.000374783,1246.67,-6.19666e-05,1246.67,0.000804037,1246.67,0.000129656,
1243.33,-0.000383409,1243.33,-0.000308141,1243.33,-0.000353614,1243.33,0.000379343,1243.33,-3.18386e-05,1243.33,0.000836923,1243.33,0.000141412,
1240,-0.00039784,1240,-0.000324954,1240,-0.000382219,1240,0.000335379,1240,-2.80077e-05,1240,0.000845819,1240,0.000132401,
1236.67,-0.000390754,1236.67,-0.000326869,1236.67,-0.000363649,1236.67,0.000349549,1236.67,-2.23131e-05,1236.67,0.000856219,1236.67,0.000130019,
1233.33,-0.000381392,1233.33,-0.00031797,1233.33,-0.000372029,1233.33,0.000359601,1233.33,-1.51171e-05,1233.33,0.000883973,1233.33,0.000145089,
1230,-0.000361683,1230,-0.000319367,1230,-0.000360235,1230,0.000397946,1230,8.41302e-06,1230,0.000915827,1230,0.000143147,
1226.67,-0.000346216,1226.67,-0.000298363,1226.67,-0.000354079,1226.67,0.000476874,1226.67,2.88379e-05,1226.67,0.000989167,1226.67,0.000204159,
1223.33,-0.000372184,1223.33,-0.000293396,1223.33,-0.000346423,1223.33,0.000563515,1223.33,5.2707e-05,1223.33,0.00103486,1223.33,0.000234254,
1220,-0.000335973,1220,-0.000280255,1220,-0.000320143,1220,0.00064631,1220,8.98336e-05,1220,0.00110399,1220,0.000263755,
1216.67,-0.000335766,1216.67,-0.000264112,1216.67,-0.000302915,1216.67,0.000768224,1216.67,0.000109304,1216.67,0.00117772,1216.67,0.000323617,
1213.33,-0.000297794,1213.33,-0.000258265,1213.33,-0.000292206,1213.33,0.000967971,1213.33,0.000161688,1213.33,0.00125557,1213.33,0.000378488,
1210,-0.000318332,1210,-0.000256661,1210,-0.000258524,1210,0.00120106,1210,0.000197633,1210,0.0013296,1210,0.00045407,
1206.67,-0.000283255,1206.67,-0.000198034,1206.67,-0.000206935,1206.67,0.00148056,1206.67,0.000275022,1206.67,0.00151612,1206.67,0.000589124,
1203.33,-0.000304674,1203.33,-0.000186339,1203.33,-0.000201967,1203.33,0.00166917,1203.33,0.000337736,1203.33,0.00164101,1203.33,0.000706018,
1200,-0.000307054,1200,-0.00019643,1200,-0.000185718,1200,0.00192861,1200,0.000430023,1200,0.001839,1200,0.000875906,
1196.67,-0.000316987,1196.67,-0.000187477,1196.67,-0.000169572,1196.67,0.00239244,1196.67,0.000606673,1196.67,0.00216336,1196.67,0.00117217,
1193.33,-0.000327282,1193.33,-0.000116575,1193.33,-9.12126e-05,1193.33,0.00313716,1193.33,0.000770117,1193.33,0.0024672,1193.33,0.00154545,
1190,-0.000319988,1190,-7.81168e-05,1190,3.70171e-06,1190,0.00382287,1190,0.000929083,1190,0.00279566,1190,0.00180286,
1186.67,-0.000316522,1186.67,-5.28559e-05,1186.67,5.80402e-05,1186.67,0.00405172,1186.67,0.00121671,1186.67,0.00340166,1186.67,0.00242445,
1183.33,-0.000264267,1183.33,3.74068e-05,1183.33,0.000195664,1183.33,0.00381305,1183.33,0.00181074,1183.33,0.00463585,1183.33,0.00367996,
1180,-0.000257903,1180,8.77105e-05,1180,0.000283596,1180,0.00348001,1180,0.0024207,1180,0.00609373,1180,0.00542318,
1176.67,-0.000302502,1176.67,6.20013e-05,1176.67,0.000253705,1176.67,0.00310131,1176.67,0.00251448,1176.67,0.00621354,1176.67,0.0060117,
1173.33,-0.000302346,1173.33,3.86236e-05,1173.33,0.000145296,1173.33,0.00250732,1173.33,0.00209001,1173.33,0.00520788,1173.33,0.00501888,
1170,-0.000357442,1170,-9.88731e-05,1170,-3.11656e-05,1170,0.00192357,1170,0.00167692,1170,0.00436308,1170,0.00395853,
1166.67,-0.000370943,1166.67,-0.000144057,1166.67,-0.000135518,1166.67,0.00144622,1166.67,0.00137667,1166.67,0.00370315,1166.67,0.00312577,
1163.33,-0.000368667,1163.33,-0.000168381,1163.33,-0.000199224,1163.33,0.00104137,1163.33,0.00117689,1163.33,0.00320066,1163.33,0.00250547,
1160,-0.000378857,1160,-0.000194205,1160,-0.000253815,1160,0.000695595,1160,0.00100043,1160,0.00280761,1160,0.00186632,
1156.67,-0.000340526,1156.67,-0.000183027,1156.67,-0.000268717,1156.67,0.000416705,1156.67,0.00080785,1156.67,0.00234022,1156.67,0.00123509,
1153.33,-0.000269182,1153.33,-7.89968e-05,1153.33,-0.000232239,1153.33,0.000186782,1153.33,0.000587128,1153.33,0.00172796,1153.33,0.000271292,
1150,-0.000289878,1150,-0.000157876,1150,-0.000345906,1150,-0.000203313,1150,0.000147549,1150,0.000814618,1150,-0.00116222,
1146.67,-0.000482453,1146.67,-0.000424167,1146.67,-0.000678976,1146.67,-0.000880007,1146.67,-0.000351751,1146.67,-0.00033168,1146.67,-0.00277829,
1143.33,-0.000511981,1143.33,-0.000673135,1143.33,-0.000965508,1143.33,-0.00210403,1143.33,-0.00124055,1143.33,-0.00198263,1143.33,-0.00527595,
1140,-0.000557174,1140,-0.000891012,1140,-0.00153269,1140,-0.00353311,1140,-0.00246407,1140,-0.00455864,1140,-0.00891008,
1136.67,-0.000905737,1136.67,-0.00135472,1136.67,-0.00195233,1136.67,-0.00488665,1136.67,-0.00321943,1136.67,-0.00597839,1136.67,-0.0105002,
1133.33,-0.00109546,1133.33,-0.00154337,1133.33,-0.00205797,1133.33,-0.00478118,1133.33,-0.00276316,1133.33,-0.00496277,1133.33,-0.00856565,
1130,-0.00101912,1130,-0.00126471,1130,-0.00175726,1130,-0.00382218,1130,-0.00196469,1130,-0.00342633,1130,-0.0059571,
1126.67,-0.000674013,1126.67,-0.000889307,1126.67,-0.00126259,1126.67,-0.00246289,1126.67,-0.000927125,1126.67,-0.00142981,1126.67,-0.00335441,
1123.33,-0.000622112,1123.33,-0.00066047,1123.33,-0.000908527,1123.33,-0.00172946,1123.33,-0.000292516,1123.33,-0.000387185,1123.33,-0.00188836,
1120,-0.000610686,1120,-0.000646512,1120,-0.000818519,1120,-0.00131612,1120,-9.19372e-05,1120,0.000122095,1120,-0.0012455,
1116.67,-0.000608205,1116.67,-0.000617252,1116.67,-0.000756299,1116.67,-0.00105094,1116.67,3.07536e-05,1116.67,0.000350016,1116.67,-0.000829061,
1113.33,-0.000510585,1113.33,-0.000503759,1113.33,-0.000636949,1113.33,-0.00079604,1113.33,0.000239641,1113.33,0.000739648,1113.33,-0.000394427,
1110,-0.000482143,1110,-0.00046456,1110,-0.000646461,1110,-0.000681974,1110,0.000307634,1110,0.000787025,1110,-0.000377926,
1106.67,-0.000476093,1106.67,-0.000458147,1106.67,-0.000604327,1106.67,-0.000588248,1106.67,0.000322607,1106.67,0.00082131,1106.67,-0.000294172,
1103.33,-0.000462802,1103.33,-0.000472576,1103.33,-0.00061079,1103.33,-0.00058375,1103.33,0.000356518,1103.33,0.000834485,1103.33,-0.000353148,
1100,-0.00048447,1100,-0.000485711,1100,-0.000623094,1100,-0.000592023,1100,0.000347606,1100,0.000804426,1100,-0.000390599,
1096.67,-0.000541042,1096.67,-0.000531786,1096.67,-0.000658247,1096.67,-0.000599571,1096.67,0.0003274,1096.67,0.000763193,1096.67,-0.000385685,
1093.33,-0.000495382,1093.33,-0.000493675,1093.33,-0.000620613,1093.33,-0.000593884,1093.33,0.000349549,1093.33,0.000793378,1093.33,-0.000382943,
1090,-0.000522168,1090,-0.000525116,1090,-0.000667087,1090,-0.000613478,1090,0.000320302,1090,0.000770636,1090,-0.000403168,
1086.67,-0.000518187,1086.67,-0.000508827,1086.67,-0.000655714,1086.67,-0.000580441,1086.67,0.000342088,1086.67,0.000781034,1086.67,-0.000388219,
1083.33,-0.000464405,1083.33,-0.000475575,1083.33,-0.000617511,1083.33,-0.000560225,1083.33,0.000376338,1083.33,0.000808368,1083.33,-0.00034125,
1080,-0.000481212,1080,-0.000479764,1080,-0.000612651,1080,-0.000543472,1080,0.000360586,1080,0.000829635,1080,-0.000316211,
1076.67,-0.000484367,1076.67,-0.000481367,1076.67,-0.000639637,1076.67,-0.000564517,1076.67,0.000347788,1076.67,0.000820895,1076.67,-0.000306434,
1073.33,-0.000448579,1073.33,-0.000447338,1073.33,-0.000590937,1073.33,-0.000531786,1073.33,0.000342684,1073.33,0.000839283,1073.33,-0.000258524,
1070,-0.000427891,1070,-0.000456389,1070,-0.000593522,1070,-0.000517359,1070,0.000286911,1070,0.00084958,1070,-0.000267527,
1066.67,-0.000440563,1066.67,-0.000454785,1066.67,-0.00057827,1066.67,-0.000501587,1066.67,0.000269686,1066.67,0.000839153,1066.67,-0.000254178,
1063.33,-0.000439528,1063.33,-0.000448269,1063.33,-0.000573927,1063.33,-0.000551073,1063.33,0.000273805,1063.33,0.000834537,1063.33,-0.000277771,
1060,-0.000433529,1060,-0.000415995,1060,-0.00057584,1060,-0.000501639,1060,0.000261708,1060,0.000826886,1060,-0.000273425,
1056.67,-0.000480075,1056.67,-0.000456647,1056.67,-0.000585456,1056.67,-0.00054947,1056.67,0.000210685,1056.67,0.000828883,1056.67,-0.000302398,
1053.33,-0.000495227,1053.33,-0.000473352,1053.33,-0.000609549,1053.33,-0.000583957,1053.33,0.000174196,1053.33,0.000796309,1053.33,-0.000334939,
1050,-0.000415478,1050,-0.000442063,1050,-0.000545851,1050,-0.000495123,1050,0.000223894,1050,0.000894997,1050,-0.000258162,
1046.67,-0.000424323,1046.67,-0.000436063,1046.67,-0.000562242,1046.67,-0.000481729,1046.67,0.000220812,1046.67,0.000944518,1046.67,-0.000261939,
1043.33,-0.000486125,1043.33,-0.000477799,1043.33,-0.000616373,1043.33,-0.00053613,1043.33,0.000143898,1043.33,0.000895282,1043.33,-0.000257075,
1040,-0.000419099,1040,-0.000433994,1040,-0.000577649,1040,-0.000506707,1040,0.000137942,1040,0.000901949,1040,-0.000237309,
1036.67,-0.000474024,1036.67,-0.000474645,1036.67,-0.000592178,1036.67,-0.000520255,1036.67,0.000154567,1036.67,0.000866309,1036.67,-0.000251228,
1033.33,-0.000488297,1033.33,-0.000481316,1033.33,-0.00060929,1033.33,-0.000539956,1033.33,0.000117952,1033.33,0.000846675,1033.33,-0.000256558,
1030,-0.000454475,1030,-0.000471593,1030,-0.000596469,1030,-0.00051648,1030,0.000123079,1030,0.000876217,1030,-0.000241138,
1026.67,-0.000447079,1026.67,-0.00047873,1026.67,-0.000594814,1026.67,-0.000483229,1026.67,0.000137424,1026.67,0.000895308,1026.67,-0.000236378,
1023.33,-0.000477282,1023.33,-0.00048566,1023.33,-0.000656231,1023.33,-0.000535147,1023.33,9.7135e-05,1023.33,0.000923246,1023.33,-0.000310934,
1020,-0.000443924,1020,-0.000445166,1020,-0.000585456,1020,-0.000501691,1020,0.000130122,1020,0.00095103,1020,-0.000223597,
1016.67,-0.000460991,1016.67,-0.000462181,1016.67,-0.000570101,1016.67,-0.000478109,1016.67,0.000144934,1016.67,0.000969916,1016.67,-0.000190324,
1013.33,-0.000464663,1013.33,-0.000511878,1013.33,-0.000624025,1013.33,-0.000499105,1013.33,0.000157985,1013.33,0.000944674,1013.33,-0.000197362,
1010,-0.0004718,1010,-0.00045251,1010,-0.000585612,1010,-0.000478161,1010,0.000195354,1010,0.00102344,1010,-0.000122113,
1006.67,-0.000436063,1006.67,-0.000444597,1006.67,-0.000586852,1006.67,-0.000524133,1006.67,0.000179349,1006.67,0.00100723,1006.67,-0.000119628,
1003.33,-0.000466991,1003.33,-0.000484522,1003.33,-0.000642635,1003.33,-0.00052977,1003.33,0.000208743,1003.33,0.000969787,1003.33,-0.000145558,
1000,-0.000436787,1000,-0.00048023,1000,-0.000611203,1000,-0.000537371,1000,0.000223246,1000,0.00100121,1000,-0.000187374,
996.667,-0.000434615,996.667,-0.000455199,996.667,-0.000593729,996.667,-0.000525943,996.667,0.00022493,996.667,0.000991554,996.667,-0.000190324,
993.333,-0.000444855,993.333,-0.000446769,993.333,-0.000610428,993.333,-0.000538612,993.333,0.000224023,993.333,0.000995186,993.333,-0.000212679,
990,-0.000426288,990,-0.000435701,990,-0.000603087,990,-0.000523203,990,0.000248473,990,0.000988778,990,-0.000225253,
986.667,-0.000430839,986.667,-0.000455975,986.667,-0.000607429,986.667,-0.000557588,986.667,0.000236222,986.667,0.000998404,986.667,-0.000259093,
983.333,-0.000473972,983.333,-0.000489021,983.333,-0.00064858,983.333,-0.000609239,983.333,0.000211281,983.333,0.00096273,983.333,-0.000296035,
980,-0.000466939,980,-0.000507069,980,-0.000644393,980,-0.00060319,980,0.000202061,980,0.000951185,980,-0.000309641,
976.667,-0.000469163,976.667,-0.000479764,976.667,-0.000643101,976.667,-0.000633433,976.667,0.000199678,976.667,0.000934245,976.667,-0.000324334,
973.333,-0.000522582,973.333,-0.000555623,973.333,-0.00068218,973.333,-0.000675306,973.333,0.000156017,973.333,0.000893778,973.333,-0.000365977,
970,-0.000528787,970,-0.000548333,970,-0.000669775,970,-0.000698669,970,0.000171969,970,0.00088112,970,-0.000377512,
966.667,-0.000558777,966.667,-0.000565551,966.667,-0.000697067,966.667,-0.000719344,966.667,0.000177536,966.667,0.000870303,966.667,-0.000399599,
963.333,-0.000519635,963.333,-0.000534423,963.333,-0.000652302,963.333,-0.000697791,963.333,0.000175439,963.333,0.000939278,963.333,-0.00036546,
960,-0.000482298,960,-0.000493365,960,-0.000604172,960,-0.000651423,960,0.000163656,960,0.00102246,960,-0.000312952,
956.667,-0.000505414,956.667,-0.000501432,956.667,-0.000575271,956.667,-0.000641395,956.667,0.000179038,956.667,0.00105803,956.667,-0.000274512,
953.333,-0.000488297,953.333,-0.000522065,953.333,-0.000622112,953.333,-0.000630435,953.333,0.000180359,953.333,0.00105289,953.333,-0.000291896,
950,-0.000503294,950,-0.000535044,950,-0.000606964,950,-0.000652716,950,0.000173341,950,0.00100211,950,-0.00034782,
946.667,-0.000452406,946.667,-0.000492021,946.667,-0.000569377,946.667,-0.000639017,946.667,0.000204521,946.667,0.00103289,946.667,-0.000316004,
943.333,-0.000471955,943.333,-0.000500398,943.333,-0.000578373,943.333,-0.000659591,943.333,0.000201983,943.333,0.00103914,943.333,-0.000336594,
940,-0.000416306,940,-0.000440201,940,-0.00051467,940,-0.00061048,940,0.000245598,940,0.00108276,940,-0.000271459,
936.667,-0.00040803,936.667,-0.000450182,936.667,-0.000522841,936.667,-0.000584216,936.667,0.000278104,936.667,0.00111709,936.667,-0.000274408,
933.333,-0.000416461,933.333,-0.000453492,933.333,-0.000519945,933.333,-0.000557743,933.333,0.000262123,933.333,0.00111006,933.333,-0.000281807,
930,-0.000373012,930,-0.000421116,930,-0.000496623,930,-0.000524857,930,0.000290201,930,0.00110812,930,-0.000263957,
926.667,-0.000365563,926.667,-0.000454734,926.667,-0.000529925,926.667,-0.000496261,926.667,0.000312686,926.667,0.00113007,926.667,-0.000232446,
923.333,-0.000349579,923.333,-0.000421581,923.333,-0.000504483,923.333,-0.000452872,923.333,0.00033341,923.333,0.0011566,923.333,-0.000226702,
920,-0.000360597,920,-0.000410823,920,-0.000502467,920,-0.000429857,920,0.000346544,920,0.00117635,920,-0.00017899,
916.667,-0.000312693,916.667,-0.000386357,916.667,-0.000492383,916.667,-0.00035889,916.667,0.000402377,916.667,0.00125243,916.667,-0.000139451,
913.333,-0.000332766,913.333,-0.000396185,913.333,-0.000508206,913.333,-0.000267268,913.333,0.000388334,913.333,0.00127315,913.333,-0.000113159,
910,-0.000340784,910,-0.00041222,910,-0.000499933,910,-0.000243105,910,0.000391054,910,0.00130719,910,-6.23807e-05,
906.667,-0.000293706,906.667,-0.000401875,906.667,-0.00051405,906.667,-0.000228513,906.667,0.000461715,906.667,0.00147625,906.667,9.23192e-05,
903.333,-0.00030395,903.333,-0.000399702,903.333,-0.000505724,903.333,-0.000231618,903.333,0.00050507,903.333,0.00158525,903.333,0.000215632,
900,-0.000279168,900,-0.000408961,900,-0.000509913,900,-0.000290085,900,0.000534382,900,0.00158686,900,0.000279995,
896.667,0.000200015,896.667,-0.000429908,896.667,-0.00110651,896.667,0,896.667,-2.00353e-05,896.667,0.00144152,896.667,-0.000351027,
893.333,0.000510357,893.333,7.36777e-05,893.333,-0.000836811,893.333,-0.000403375,893.333,0.00169545,893.333,0.00120817,893.333,0.000198643,
890,3.07536e-05,890,-0.000346682,890,-0.000547764,890,0.00135998,890,-0.000339802,890,0.0012663,890,0.000269298,
886.667,3.38343e-05,886.667,-0.000811336,886.667,-0.000136708,886.667,-0.00115371,886.667,-0.00121313,886.667,0.0020511,886.667,-8.43283e-05,
883.333,-0.000947118,883.333,-0.000350769,883.333,-0.000337267,883.333,-0.00177736,883.333,-0.000520048,883.333,0.0018919,883.333,-0.00046968,
880,0.000265024,880,0.000489184,880,-0.000243881,880,-0.000789735,880,-2.55228e-05,880,0.00240941,880,-0.000540628,
876.667,0.000221925,876.667,-0.000987255,876.667,-0.00021537,876.667,-0.000194464,876.667,0.00051922,876.667,0.00183362,876.667,0.000122044,
873.333,0.000186937,873.333,-0.00023762,873.333,0.000475993,873.333,9.71868e-05,873.333,0.00153791,873.333,0.00148692,873.333,-0.000117041,
870,0.000207344,870,-0.000295983,870,-0.000720223,870,-0.000152907,870,0.00038779,870,0.00170192,870,0.00010309,
866.667,0.000513363,866.667,-0.00038284,866.667,-0.000446769,866.667,-0.000655714,866.667,0.000297661,866.667,0.0015991,866.667,-0.000105447,
863.333,0.000766849,863.333,0.000937592,863.333,0.000606958,863.333,0.000309344,863.333,0.00129582,863.333,0.00237648,863.333,0.000757151,
860,0.000542754,860,0.000156638,860,5.35096e-05,860,-0.000257696,860,0.00112179,860,0.00183372,860,0.000275074,
856.667,0.000483301,856.667,6.51858e-05,856.667,-0.000200466,856.667,1.14159e-05,856.667,0.000840217,856.667,0.00233242,856.667,0.00049574,
853.333,0.000619168,853.333,0.00045705,853.333,0.00028774,853.333,0.000241894,853.333,0.00130994,853.333,0.00267205,853.333,0.000656965,
850,0.000605636,850,0.00027554,850,0.000106016,850,0.000109253,850,0.00125124,850,0.00253752,850,0.000736485,
846.667,0.000790967,846.667,0.000361907,846.667,0.00028559,846.667,0.000407196,846.667,0.00134009,846.667,0.00241089,846.667,0.000737288,
843.333,0.000795972,843.333,2.51619e-05,843.333,0.000168032,843.333,0.000167566,843.333,0.00135408,843.333,0.00246728,843.333,0.000837805,
840,0.000721653,840,0.000282042,840,0.000238993,840,0.000123079,840,0.00140095,840,0.00243929,840,0.000804089,
836.667,0.000619453,836.667,0.000406185,836.667,0.000202191,836.667,0.000233373,836.667,0.00153841,836.667,0.00250404,836.667,0.000869629,
833.333,0.000867398,833.333,0.000421991,833.333,0.000112929,833.333,0.000271706,833.333,0.00138171,833.333,0.00252705,833.333,0.000848412,
830,0.000691628,830,0.000325457,830,0.000101122,830,0.000172098,830,0.00148209,830,0.0025439,830,0.000776652,
826.667,0.000663835,826.667,0.000254508,826.667,0.000160989,826.667,8.64936e-05,826.667,0.00156893,826.667,0.00258155,826.667,0.000790422,
823.333,0.000676876,823.333,0.000143536,823.333,-5.9896e-05,823.333,-9.6958e-05,823.333,0.0016434,823.333,0.00245681,823.333,0.000640606,
820,0.000583836,820,0.000154489,820,3.77937e-06,820,-0.000165483,820,0.00148783,820,0.00244351,820,0.00071989,
816.667,0.000709881,816.667,0.000310665,816.667,0.000103867,816.667,9.93358e-05,816.667,0.00176944,816.667,0.00261889,816.667,0.000814696,
813.333,0.0007069,813.333,0.000289424,813.333,-2.06565e-05,813.333,0.00012963,813.333,0.00171231,813.333,0.00252924,813.333,0.000722301,
810,0.000744134,810,0.000309836,810,8.12895e-05,810,0.0001041,810,0.00199919,810,0.00273483,810,0.000849398,
806.667,0.000669616,806.667,0.000229281,806.667,-0.000125063,806.667,-5.85501e-05,806.667,0.00185264,806.667,0.00263681,806.667,0.000657224,
803.333,0.000706096,803.333,0.000293776,803.333,5.56552e-06,803.333,1.54283e-05,803.333,0.00203552,803.333,0.00274913,803.333,0.000630392,
800,0.000507351,800,0.000187662,800,-0.000141418,800,-9.30242e-05,800,0.00202054,800,0.00262608,800,0.000566159,
796.667,0.00065515,796.667,0.000228866,796.667,-3.12691e-05,796.667,-2.17442e-06,796.667,0.00229965,796.667,0.00271412,796.667,0.000667828,
793.333,0.000587906,793.333,6.4901e-05,793.333,-3.94484e-05,793.333,-9.76827e-05,793.333,0.00229614,793.333,0.00272138,793.333,0.000673168,
790,0.000595397,790,0.000117927,790,-5.16136e-05,790,-0.00010907,790,0.00235178,790,0.0026466,790,0.000610458,
786.667,0.000632959,786.667,0.000152469,786.667,-0.000153114,786.667,-1.14932e-05,786.667,0.00245874,786.667,0.00281379,786.667,0.000636562,
783.333,0.000553925,783.333,0.000176526,783.333,-9.0695e-05,783.333,-6.6263e-05,783.333,0.00251362,783.333,0.00292352,783.333,0.00064338,
780,0.000700936,780,0.000155732,780,-4.02767e-05,780,-2.97161e-05,780,0.00252518,780,0.00297429,780,0.000588087,
776.667,0.000702984,776.667,0.000209779,776.667,-2.80077e-05,776.667,-2.06047e-05,776.667,0.00263522,776.667,0.00295331,776.667,0.000653258,
773.333,0.00066692,773.333,0.00013947,773.333,-0.000172211,773.333,-1.58419e-05,773.333,0.0026378,773.333,0.00302519,773.333,0.000605351,
770,0.000690098,770,0.000287896,770,3.021e-05,770,1.57907e-05,770,0.00272941,770,0.00306591,770,0.000696762,
766.667,0.000680428,766.667,0.000211851,766.667,-0.000104308,766.667,-7.01971e-05,766.667,0.00265786,766.667,0.00309962,766.667,0.000683487,
763.333,0.000776807,763.333,0.000221045,763.333,-2.44357e-05,763.333,-5.91713e-05,763.333,0.00274298,763.333,0.00317544,763.333,0.000695958,
760,0.00063747,760,0.000141956,760,-0.000154822,760,-5.99995e-05,760,0.00272415,760,0.00311299,760,0.000570306,
756.667,0.000660957,756.667,0.000189242,756.667,-6.87995e-05,756.667,-7.44417e-05,756.667,0.00272495,756.667,0.00307968,756.667,0.000652117,
753.333,0.00068398,753.333,0.000119273,753.333,-0.000100685,753.333,-8.10155e-05,753.333,0.00264155,753.333,0.00306568,753.333,0.00061038,
750,0.000707729,750,0.000204366,750,-0.000100426,750,-3.04408e-05,750,0.00271427,750,0.00318381,750,0.000638169,
746.667,0.000684239,746.667,0.000134188,746.667,-0.000135518,746.667,-0.000123769,746.667,0.00267822,746.667,0.00322408,746.667,0.00060561,
743.333,0.000713563,743.333,0.000236092,743.333,-8.87798e-05,743.333,-7.49075e-05,743.333,0.00274553,743.333,0.00332861,743.333,0.000671691,
740,0.000674257,740,0.000200533,740,-0.000112331,740,-9.58193e-05,740,0.00269067,740,0.00336505,740,0.000687272,
736.667,0.000770143,736.667,0.000254896,736.667,-2.70241e-05,736.667,-5.03194e-05,736.667,0.00272428,736.667,0.00340588,736.667,0.000712837,
733.333,0.000674516,733.333,0.000162335,733.333,-6.74018e-05,733.333,-8.75375e-05,733.333,0.00264801,733.333,0.00338874,733.333,0.000671094,
730,0.000667076,730,0.000244122,730,-0.000148457,730,-0.000109277,730,0.00268705,730,0.00340004,730,0.000650354,
726.667,0.000696995,726.667,0.000172668,726.667,-0.000133396,726.667,-0.000149078,726.667,0.00262205,726.667,0.00345929,726.667,0.000665676,
723.333,0.000739415,723.333,0.000247178,723.333,-0.000157099,723.333,-0.000173764,723.333,0.00270453,723.333,0.0035352,723.333,0.000637832,
720,0.000714704,720,0.000206904,720,-0.000207142,720,-0.000148042,720,0.00267476,720,0.00354781,720,0.000618468,
716.667,0.000713252,716.667,8.51214e-05,716.667,-0.00022665,716.667,-0.000203002,716.667,0.00263322,716.667,0.00358043,716.667,0.00053135,
713.333,0.000785547,713.333,0.000245624,713.333,-0.000117196,713.333,-0.000145196,713.333,0.00272691,713.333,0.00367422,713.333,0.000549104,
710,0.000773929,710,0.000169664,710,-0.000183596,710,-0.000179404,710,0.00262955,710,0.00361614,710,0.000559082,
706.667,0.000744393,706.667,0.000221381,706.667,-0.000158497,706.667,-0.000198241,706.667,0.00266835,706.667,0.003692,706.667,0.000551073,
703.333,0.000744782,703.333,0.000172642,703.333,-0.000104153,703.333,-0.000127599,703.333,0.00271104,703.333,0.00374628,703.333,0.000647969,
700,0.000827404,700,0.000220397,700,-0.000134638,700,-0.000164345,700,0.00269281,700,0.00381203,700,0.000679572,
696.667,0.000829713,696.667,0.000306261,696.667,-9.04879e-05,696.667,-9.32312e-05,696.667,0.0027534,696.667,0.00389678,696.667,0.000704981,
693.333,0.000827119,693.333,0.000270308,693.333,-0.00013883,693.333,-0.00010524,693.333,0.00271117,693.333,0.00396151,693.333,0.00066355,
690,0.000950018,690,0.000356026,690,4.14176e-07,690,-1.32016e-05,690,0.00281066,690,0.00409996,690,0.00078176,
686.667,0.00103392,686.667,0.000481176,686.667,9.94394e-05,686.667,5.51924e-05,686.667,0.00290694,686.667,0.00417841,686.667,0.000914945,
683.333,0.00118432,683.333,0.000627048,683.333,0.000195146,683.333,0.000175957,683.333,0.00295367,683.333,0.00440384,683.333,0.00100946,
680,0.00127842,680,0.000787751,680,0.000251348,680,0.000309758,680,0.00310442,680,0.00453848,680,0.00112208,
676.667,0.00153454,676.667,0.00101415,676.667,0.000509683,676.667,0.000572924,676.667,0.00332799,676.667,0.00484796,676.667,0.00139184,
673.333,0.00144669,673.333,0.000962886,673.333,0.000476693,673.333,0.000565899,673.333,0.00324178,673.333,0.00487191,673.333,0.00138888,
670,0.00139244,670,0.000895334,670,0.000406678,670,0.000486774,670,0.00320608,670,0.00484071,670,0.00129488,
666.667,0.00140259,666.667,0.000837675,666.667,0.000433029,666.667,0.000410227,666.667,0.00310569,666.667,0.00483181,666.667,0.00127136,
663.333,0.00123366,663.333,0.000632311,663.333,0.000210711,663.333,0.000232881,663.333,0.0029126,663.333,0.00473424,663.333,0.00112862,
660,0.00117217,660,0.000560404,660,0.000135897,660,9.10764e-05,660,0.00285681,660,0.00468891,660,0.00108634,
656.667,0.00115161,656.667,0.000555557,656.667,0.000123261,656.667,0.000104799,656.667,0.00280816,656.667,0.00472034,656.667,0.00104978,
653.333,0.00120654,653.333,0.000569995,653.333,0.000151511,653.333,0.000182819,653.333,0.00286371,653.333,0.00484762,653.333,0.00113402,
650,0.00121876,650,0.000577641,650,0.000141335,650,0.000117176,650,0.0029089,650,0.00486419,650,0.00114069,
646.667,0.00134886,646.667,0.000683487,646.667,0.000251866,646.667,0.00024881,646.667,0.00301828,646.667,0.00509244,646.667,0.00125212,
643.333,0.00140088,643.333,0.000720953,643.333,0.000291444,643.333,0.000236067,643.333,0.00306328,643.333,0.00516835,643.333,0.00132092,
640,0.00148638,640,0.000847608,640,0.000378048,640,0.000354964,640,0.00316454,640,0.00536188,640,0.00144526,
636.667,0.00156267,636.667,0.00088348,636.667,0.000411419,636.667,0.000388334,636.667,0.00324982,636.667,0.0054815,636.667,0.00153607,
633.333,0.00167128,633.333,0.000947865,633.333,0.00048895,633.333,0.000541535,633.333,0.00346258,633.333,0.00572508,633.333,0.00171426,
630,0.00180427,630,0.001105,630,0.000606232,630,0.000612428,630,0.00366877,630,0.00600399,630,0.00189323,
626.667,0.001951,626.667,0.00128527,626.667,0.000815293,626.667,0.000728394,626.667,0.00392784,626.667,0.00627341,626.667,0.00210866,
623.333,0.00225734,623.333,0.00153025,623.333,0.00105813,623.333,0.000990439,623.333,0.00438653,623.333,0.00671829,623.333,0.00245069,
620,0.0025238,620,0.00180089,620,0.00128078,620,0.0012704,620,0.00480765,620,0.0072493,620,0.00285219,
616.667,0.00293978,616.667,0.00217762,616.667,0.00164454,616.667,0.00158104,616.667,0.00543007,616.667,0.0078591,616.667,0.00329324,
613.333,0.00333328,613.333,0.00258074,613.333,0.00203679,613.333,0.00198031,613.333,0.00616656,613.333,0.00861329,613.333,0.00384279,
610,0.00393928,610,0.00315912,610,0.00258574,610,0.00247527,610,0.00703606,610,0.00950846,610,0.0045394,
606.667,0.0046398,606.667,0.00380135,606.667,0.00318681,606.667,0.00303392,606.667,0.00813648,606.667,0.010565,606.667,0.00531934,
603.333,0.00546244,603.333,0.00463889,603.333,0.00392716,603.333,0.00374714,603.333,0.00934436,603.333,0.0117628,603.333,0.00622743,
600,0.00654892,600,0.00559099,600,0.00486163,600,0.00463878,600,0.0107027,600,0.0132352,600,0.00735023,
596.667,0.00803518,596.667,0.00698211,596.667,0.00616013,596.667,0.00580873,596.667,0.0124169,596.667,0.0150126,596.667,0.00870091,
593.333,0.0101555,593.333,0.00899947,593.333,0.00804916,593.333,0.00761379,593.333,0.0145905,593.333,0.01736,593.333,0.0104675,
590,0.0133446,590,0.01192,590,0.0107892,590,0.0101294,590,0.0175182,590,0.0206267,590,0.0129938,
586.667,0.0180211,586.667,0.0162729,586.667,0.0148057,586.667,0.0138582,586.667,0.0214452,586.667,0.0250694,586.667,0.016342,
583.333,0.0248276,583.333,0.0225813,583.333,0.0206215,583.333,0.0192547,583.333,0.0268598,583.333,0.031292,583.333,0.020975,
580,0.0348903,580,0.0319071,580,0.0292727,580,0.0271856,580,0.0345611,580,0.0400135,580,0.0275932,
576.667,0.0492253,576.667,0.0453164,576.667,0.0416061,576.667,0.0385817,576.667,0.0453908,576.667,0.0522543,576.667,0.0366736,
573.333,0.0695867,573.333,0.0643376,573.333,0.0590864,573.333,0.0548313,573.333,0.0605814,573.333,0.0691276,573.333,0.0490411,
570,0.096428,570,0.0897529,570,0.0824744,570,0.0764669,570,0.0805625,570,0.0912568,570,0.0654633,
566.667,0.130952,566.667,0.12266,566.667,0.112968,566.667,0.104692,566.667,0.106322,566.667,0.119651,566.667,0.0864064,
563.333,0.172897,563.333,0.163358,563.333,0.150537,563.333,0.139722,563.333,0.138055,563.333,0.154223,563.333,0.11213,
560,0.220993,560,0.210879,560,0.194544,560,0.180923,560,0.175184,560,0.194342,560,0.142284,
556.667,0.273238,556.667,0.26355,556.667,0.243426,556.667,0.227013,556.667,0.216619,556.667,0.238854,556.667,0.175987,
553.333,0.328643,553.333,0.320561,553.333,0.296533,553.333,0.277508,553.333,0.261974,553.333,0.287276,553.333,0.213008,
550,0.384224,550,0.379313,550,0.351541,550,0.330064,550,0.309379,550,0.337748,550,0.25209,
546.667,0.438543,546.667,0.438162,546.667,0.406403,546.667,0.383266,546.667,0.357419,546.667,0.388923,546.667,0.292075,
543.333,0.490234,543.333,0.495426,543.333,0.460046,543.333,0.435724,543.333,0.405143,543.333,0.439683,543.333,0.332185,
540,0.538902,540,0.550136,540,0.511609,540,0.486748,540,0.45173,540,0.489153,540,0.371776,
536.667,0.584254,536.667,0.601807,536.667,0.560586,536.667,0.535515,536.667,0.496659,536.667,0.536872,536.667,0.410432,
533.333,0.62747,533.333,0.65124,533.333,0.607466,533.333,0.582768,533.333,0.540493,533.333,0.583291,533.333,0.448498,
530,0.668989,530,0.698693,530,0.652582,530,0.628521,530,0.583148,530,0.62855,530,0.485655,
526.667,0.708946,526.667,0.744158,526.667,0.696101,526.667,0.672786,526.667,0.624558,526.667,0.672379,526.667,0.522171,
523.333,0.747553,523.333,0.787954,523.333,0.738108,523.333,0.715472,523.333,0.664693,523.333,0.71485,523.333,0.557796,
520,0.784463,520,0.830213,520,0.778588,520,0.756768,520,0.703622,520,0.755904,520,0.592498,
516.667,0.818491,516.667,0.869535,516.667,0.816374,516.667,0.795654,516.667,0.740357,516.667,0.794571,516.667,0.625591,
513.333,0.849178,513.333,0.905712,513.333,0.851181,513.333,0.831638,513.333,0.774647,513.333,0.830371,513.333,0.656773,
510,0.87585,510,0.93812,510,0.882366,510,0.864741,510,0.806298,510,0.863441,510,0.685939,
506.667,0.897674,506.667,0.965928,506.667,0.909483,506.667,0.893674,506.667,0.834582,506.667,0.892723,506.667,0.712693,
503.333,0.914333,503.333,0.988682,503.333,0.931663,503.333,0.918254,503.333,0.859036,503.333,0.918057,503.333,0.736429,
500,0.92625,500,1.00641,500,0.949227,500,0.938544,500,0.87994,500,0.939516,500,0.757363,
496.667,0.93348,496.667,1.01907,496.667,0.962252,496.667,0.954403,496.667,0.896992,496.667,0.956916,496.667,0.775292,
493.333,0.936601,493.333,1.02712,493.333,0.970822,493.333,0.965907,493.333,0.910248,493.333,0.970472,493.333,0.790158,
490,0.936016,490,1.03094,490,0.975402,490,0.97363,490,0.920055,490,0.980306,490,0.802157,
486.667,0.931975,486.667,1.03089,486.667,0.976388,486.667,0.977625,486.667,0.926642,486.667,0.98671,486.667,0.811301,
483.333,0.924778,483.333,1.02728,483.333,0.97391,483.333,0.97814,483.333,0.930011,483.333,0.989774,483.333,0.817762,
480,0.91471,480,1.02042,480,0.968358,480,0.975528,480,0.930361,480,0.989623,480,0.821613,
476.667,0.901676,476.667,1.01055,476.667,0.9598,476.667,0.969975,476.667,0.928218,476.667,0.986692,476.667,0.82317,
473.333,0.886335,473.333,0.99795,473.333,0.948777,473.333,0.961989,473.333,0.923641,473.333,0.981355,473.333,0.823002,
470,0.868632,470,0.982758,470,0.935269,470,0.951587,470,0.916811,470,0.973738,470,0.821084,
466.667,0.848793,466.667,0.965161,466.667,0.919531,466.667,0.938964,466.667,0.90806,466.667,0.964109,466.667,0.817519,
463.333,0.82714,463.333,0.945093,463.333,0.901429,463.333,0.923976,463.333,0.897073,463.333,0.952202,463.333,0.812142,
460,0.803815,460,0.922726,460,0.881321,460,0.906466,460,0.883587,460,0.937635,460,0.804287,
456.667,0.778651,456.667,0.897898,456.667,0.858687,456.667,0.886146,456.667,0.867181,456.667,0.920127,456.667,0.793568,
453.333,0.752424,453.333,0.871367,453.333,0.834147,453.333,0.863554,453.333,0.848338,453.333,0.900075,453.333,0.779928,
450,0.725441,450,0.843388,450,0.808341,450,0.839106,450,0.827509,450,0.877818,450,0.763998,
446.667,0.698201,446.667,0.814589,446.667,0.781563,446.667,0.813585,446.667,0.805318,446.667,0.854222,446.667,0.746329,
443.333,0.670791,443.333,0.785371,443.333,0.754397,443.333,0.787399,443.333,0.782226,443.333,0.829764,443.333,0.727895,
440,0.644196,440,0.756595,440,0.727494,440,0.761601,440,0.759384,440,0.805528,440,0.709378,
436.667,0.618355,436.667,0.728246,436.667,0.700885,436.667,0.735866,436.667,0.736629,436.667,0.781358,436.667,0.690862,
433.333,0.59323,433.333,0.700291,433.333,0.674681,433.333,0.710444,433.333,0.713906,433.333,0.757319,433.333,0.672168,
430,0.56842,430,0.672218,430,0.64842,430,0.684523,430,0.690585,430,0.732653,430,0.652633,
426.667,0.544084,426.667,0.644379,426.667,0.622103,426.667,0.658413,426.667,0.666625,426.667,0.707297,426.667,0.631754,
423.333,0.519764,423.333,0.616245,423.333,0.595389,423.333,0.631562,423.333,0.641841,423.333,0.681078,423.333,0.609821,
420,0.49637,420,0.588674,420,0.569113,420,0.604842,420,0.616888,420,0.654472,420,0.587011,
416.667,0.47396,416.667,0.562125,416.667,0.543991,416.667,0.578867,416.667,0.59218,416.667,0.628377,416.667,0.564457,
413.333,0.453055,413.333,0.536952,413.333,0.520019,413.333,0.554062,413.333,0.568482,413.333,0.603167,413.333,0.542554,
410,0.433497,410,0.513426,410,0.497379,410,0.530477,410,0.545845,410,0.579125,410,0.521417,
406.667,0.414848,406.667,0.490854,406.667,0.475803,406.667,0.507755,406.667,0.523837,406.667,0.555643,406.667,0.500706,
403.333,0.395813,403.333,0.467862,403.333,0.4537,403.333,0.484319,403.333,0.501011,403.333,0.531287,403.333,0.479125,
400,0.376225,400,0.444287,400,0.430936,400,0.460075,400,0.477261,400,0.505974,400,0.45632,
396.667,0.356373,396.667,0.420431,396.667,0.407818,396.667,0.435334,396.667,0.452925,396.667,0.479797,396.667,0.432843,
393.333,0.336941,393.333,0.397052,393.333,0.385049,393.333,0.411042,393.333,0.429026,393.333,0.45409,393.333,0.409525,
390,0.318629,390,0.375011,390,0.363503,390,0.388057,390,0.406351,390,0.429619,390,0.387368,
386.667,0.302096,386.667,0.354991,386.667,0.343871,386.667,0.367137,386.667,0.385707,386.667,0.407513,386.667,0.367201,
383.333,0.287647,383.333,0.337364,383.333,0.326524,383.333,0.348505,383.333,0.367313,383.333,0.387878,383.333,0.348967,
380,0.275292,380,0.322187,380,0.311547,380,0.332296,380,0.351232,380,0.370733,380,0.332776,
376.667,0.265352,376.667,0.309736,376.667,0.299253,376.667,0.318626,376.667,0.337775,376.667,0.356421,376.667,0.318716,
373.333,0.257422,373.333,0.299953,373.333,0.289561,373.333,0.307737,373.333,0.327058,373.333,0.344969,373.333,0.307012,
370,0.251479,370,0.292441,370,0.28223,370,0.29939,370,0.319161,370,0.336356,370,0.297657,
366.667,0.246748,366.667,0.286602,366.667,0.276467,366.667,0.292892,366.667,0.313097,366.667,0.329816,366.667,0.290216,
363.333,0.242378,363.333,0.28124,363.333,0.271459,363.333,0.287299,363.333,0.307688,363.333,0.324327,363.333,0.284189,
360,0.237562,360,0.275236,360,0.265639,360,0.281252,360,0.301866,360,0.318626,360,0.278088,
356.667,0.232158,356.667,0.268394,356.667,0.259167,356.667,0.274385,356.667,0.295584,356.667,0.312233,356.667,0.271544,
353.333,0.226657,353.333,0.261675,353.333,0.252649,353.333,0.267427,353.333,0.289321,353.333,0.305874,353.333,0.264876,
350,0.221724,350,0.255725,350,0.246757,350,0.261313,350,0.283919,350,0.300229,350,0.259035,
346.667,0.217115,346.667,0.250578,346.667,0.241743,346.667,0.256054,346.667,0.279005,346.667,0.295699,346.667,0.253994,
343.333,0.212941,343.333,0.246147,343.333,0.237351,343.333,0.251345,343.333,0.27471,343.333,0.291451,343.333,0.249613,
340,0.209109,340,0.242047,340,0.233306,340,0.247128,340,0.270916,340,0.28792,340,0.245669,
336.667,0.205502,336.667,0.238363,336.667,0.229752,336.667,0.243381,336.667,0.267677,336.667,0.285216,336.667,0.242284,
333.333,0.20232,333.333,0.235358,333.333,0.226818,333.333,0.240284,333.333,0.265207,333.333,0.28276,333.333,0.239499,
330,0.198845,330,0.232495,330,0.223871,330,0.237231,330,0.26265,330,0.280402,330,0.236855,
326.667,0.195538,326.667,0.229571,326.667,0.220903,326.667,0.234352,326.667,0.26031,326.667,0.27782,326.667,0.234308,
323.333,0.192278,323.333,0.227234,323.333,0.218039,323.333,0.231492,323.333,0.258171,323.333,0.275475,323.333,0.232069,
320,0.189719,320,0.225528,320,0.215693,320,0.228946,320,0.256861,320,0.273639,320,0.23029,
316.667,0.187687,316.667,0.225262,316.667,0.213799,316.667,0.22684,316.667,0.256458,316.667,0.272508,316.667,0.229176,
313.333,0.186388,313.333,0.226214,313.333,0.212667,313.333,0.225456,313.333,0.257213,313.333,0.272054,313.333,0.228592,
310,0.186069,310,0.228478,310,0.212163,310,0.224902,310,0.259214,310,0.272732,310,0.22886,
306.667,0.186519,306.667,0.231852,306.667,0.212292,306.667,0.225175,306.667,0.262574,306.667,0.274751,306.667,0.230174,
303.333,0.188699,303.333,0.237551,303.333,0.214354,303.333,0.228056,303.333,0.26881,303.333,0.279547,303.333,0.234012,
300,0.192423,300,0.245097,300,0.218134,300,0.234085,300,0.277316,300,0.287531,300,0.241164,

non-imine polymer 0.0% TFA,
non-imine polymer 0.0% TFA
Collection Time: 2024-09-06 3:01:14 PM
Operator Name  :
Scan Version 6.4.0.1610
Parameter List :
Instrument  Cary 7000
Instrument Version  3.07
Method Log     :
Method Name    :
Date/Time stamp: 2024-09-06 2:24:00 PM
Method Modifications:
ConcentrationReportSelected Changed: 2024-09-06 2:24:01 PM, Old:Choice 0, New:Choice 1
ConcentrationReportSelected Changed: 2024-09-06 2:24:01 PM, Old:ON, New:Choice 0
MCAReportSelected Changed: 2024-09-06 2:24:01 PM, Old:Choice 0, New:Choice 1
MCAReportSelected Changed: 2024-09-06 2:24:01 PM, Old:ON, New:Choice 0
X Start nm Changed: 2024-09-06 2:26:10 PM, Old:800.000, New:1400.000
X Stop nm Changed: 2024-09-06 2:26:10 PM, Old:200.000, New:300.000
UVVIS Scan Rate nm Changed: 2024-09-06 2:26:10 PM, Old:  602.007, New:  600.000
NIR Scan Rate nm Changed: 2024-09-06 2:26:10 PM, Old:    0.004, New:   12.000
Common Interval nm Changed: 2024-09-06 2:26:10 PM, Old:    1.000, New:    0.667
Source changeover Changed: 2024-09-06 2:26:10 PM, Old:   350.00, New:   300.00
Detector changeover Changed: 2024-09-06 2:26:10 PM, Old:   800.00, New:   900.00
Grating changeover Changed: 2024-09-06 2:26:10 PM, Old:   800.00, New:   900.00
Baseline Correction Changed: 2024-09-06 2:26:10 PM, Old:0, New:2
Sipper Type Changed: 2024-09-06 2:26:10 PM, Old:Internal RSA, New:External sipper
End Method Modifications
<Current Wavelength> , 300.000
<SBW (nm)> , 2.00
<Energy> , 45.71
<Slit Height> , Full

non-imine polymer 0.017% TFA,
non-imine polymer 0.017% TFA
Collection Time: 2024-09-06 3:05:56 PM
Operator Name  :
Scan Version 6.4.0.1610
Parameter List :
Instrument  Cary 7000
Instrument Version  3.07
Method Log     :
Method Name    :
Date/Time stamp: 2024-09-06 2:24:00 PM
Method Modifications:
ConcentrationReportSelected Changed: 2024-09-06 2:24:01 PM, Old:Choice 0, New:Choice 1
ConcentrationReportSelected Changed: 2024-09-06 2:24:01 PM, Old:ON, New:Choice 0
MCAReportSelected Changed: 2024-09-06 2:24:01 PM, Old:Choice 0, New:Choice 1
MCAReportSelected Changed: 2024-09-06 2:24:01 PM, Old:ON, New:Choice 0
X Start nm Changed: 2024-09-06 2:26:10 PM, Old:800.000, New:1400.000
X Stop nm Changed: 2024-09-06 2:26:10 PM, Old:200.000, New:300.000
UVVIS Scan Rate nm Changed: 2024-09-06 2:26:10 PM, Old:  602.007, New:  600.000
NIR Scan Rate nm Changed: 2024-09-06 2:26:10 PM, Old:    0.004, New:   12.000
Common Interval nm Changed: 2024-09-06 2:26:10 PM, Old:    1.000, New:    0.667
Source changeover Changed: 2024-09-06 2:26:10 PM, Old:   350.00, New:   300.00
Detector changeover Changed: 2024-09-06 2:26:10 PM, Old:   800.00, New:   900.00
Grating changeover Changed: 2024-09-06 2:26:10 PM, Old:   800.00, New:   900.00
Baseline Correction Changed: 2024-09-06 2:26:10 PM, Old:0, New:2
Sipper Type Changed: 2024-09-06 2:26:10 PM, Old:Internal RSA, New:External sipper
End Method Modifications
<Current Wavelength> , 300.000
<SBW (nm)> , 2.00
<Energy> , 45.71
<Slit Height> , Full

non-imine polymer 0.05% TFA,
non-imine polymer 0.05% TFA
Collection Time: 2024-09-06 3:11:06 PM
Operator Name  :
Scan Version 6.4.0.1610
Parameter List :
Instrument  Cary 7000
Instrument Version  3.07
Method Log     :
Method Name    :
Date/Time stamp: 2024-09-06 2:24:00 PM
Method Modifications:
ConcentrationReportSelected Changed: 2024-09-06 2:24:01 PM, Old:Choice 0, New:Choice 1
ConcentrationReportSelected Changed: 2024-09-06 2:24:01 PM, Old:ON, New:Choice 0
MCAReportSelected Changed: 2024-09-06 2:24:01 PM, Old:Choice 0, New:Choice 1
MCAReportSelected Changed: 2024-09-06 2:24:01 PM, Old:ON, New:Choice 0
X Start nm Changed: 2024-09-06 2:26:10 PM, Old:800.000, New:1400.000
X Stop nm Changed: 2024-09-06 2:26:10 PM, Old:200.000, New:300.000
UVVIS Scan Rate nm Changed: 2024-09-06 2:26:10 PM, Old:  602.007, New:  600.000
NIR Scan Rate nm Changed: 2024-09-06 2:26:10 PM, Old:    0.004, New:   12.000
Common Interval nm Changed: 2024-09-06 2:26:10 PM, Old:    1.000, New:    0.667
Source changeover Changed: 2024-09-06 2:26:10 PM, Old:   350.00, New:   300.00
Detector changeover Changed: 2024-09-06 2:26:10 PM, Old:   800.00, New:   900.00
Grating changeover Changed: 2024-09-06 2:26:10 PM, Old:   800.00, New:   900.00
Baseline Correction Changed: 2024-09-06 2:26:10 PM, Old:0, New:2
Sipper Type Changed: 2024-09-06 2:26:10 PM, Old:Internal RSA, New:External sipper
End Method Modifications
<Current Wavelength> , 298.667
<SBW (nm)> , 2.00
<Energy> , 45.71
<Slit Height> , Full

non-imine polymer 0.1% TFA,
non-imine polymer 0.1% TFA
Collection Time: 2024-09-06 3:15:48 PM
Operator Name  :
Scan Version 6.4.0.1610
Parameter List :
Instrument  Cary 7000
Instrument Version  3.07
Method Log     :
Method Name    :
Date/Time stamp: 2024-09-06 2:24:00 PM
Method Modifications:
ConcentrationReportSelected Changed: 2024-09-06 2:24:01 PM, Old:Choice 0, New:Choice 1
ConcentrationReportSelected Changed: 2024-09-06 2:24:01 PM, Old:ON, New:Choice 0
MCAReportSelected Changed: 2024-09-06 2:24:01 PM, Old:Choice 0, New:Choice 1
MCAReportSelected Changed: 2024-09-06 2:24:01 PM, Old:ON, New:Choice 0
X Start nm Changed: 2024-09-06 2:26:10 PM, Old:800.000, New:1400.000
X Stop nm Changed: 2024-09-06 2:26:10 PM, Old:200.000, New:300.000
UVVIS Scan Rate nm Changed: 2024-09-06 2:26:10 PM, Old:  602.007, New:  600.000
NIR Scan Rate nm Changed: 2024-09-06 2:26:10 PM, Old:    0.004, New:   12.000
Common Interval nm Changed: 2024-09-06 2:26:10 PM, Old:    1.000, New:    0.667
Source changeover Changed: 2024-09-06 2:26:10 PM, Old:   350.00, New:   300.00
Detector changeover Changed: 2024-09-06 2:26:10 PM, Old:   800.00, New:   900.00
Grating changeover Changed: 2024-09-06 2:26:10 PM, Old:   800.00, New:   900.00
Baseline Correction Changed: 2024-09-06 2:26:10 PM, Old:0, New:2
Sipper Type Changed: 2024-09-06 2:26:10 PM, Old:Internal RSA, New:External sipper
End Method Modifications
<Current Wavelength> , 300.000
<SBW (nm)> , 2.00
<Energy> , 45.71
<Slit Height> , Full

non-imine polymer 0.25% TFA,
non-imine polymer 0.25% TFA
Collection Time: 2024-09-06 3:20:27 PM
Operator Name  :
Scan Version 6.4.0.1610
Parameter List :
Instrument  Cary 7000
Instrument Version  3.07
Method Log     :
Method Name    :
Date/Time stamp: 2024-09-06 2:24:00 PM
Method Modifications:
ConcentrationReportSelected Changed: 2024-09-06 2:24:01 PM, Old:Choice 0, New:Choice 1
ConcentrationReportSelected Changed: 2024-09-06 2:24:01 PM, Old:ON, New:Choice 0
MCAReportSelected Changed: 2024-09-06 2:24:01 PM, Old:Choice 0, New:Choice 1
MCAReportSelected Changed: 2024-09-06 2:24:01 PM, Old:ON, New:Choice 0
X Start nm Changed: 2024-09-06 2:26:10 PM, Old:800.000, New:1400.000
X Stop nm Changed: 2024-09-06 2:26:10 PM, Old:200.000, New:300.000
UVVIS Scan Rate nm Changed: 2024-09-06 2:26:10 PM, Old:  602.007, New:  600.000
NIR Scan Rate nm Changed: 2024-09-06 2:26:10 PM, Old:    0.004, New:   12.000
Common Interval nm Changed: 2024-09-06 2:26:10 PM, Old:    1.000, New:    0.667
Source changeover Changed: 2024-09-06 2:26:10 PM, Old:   350.00, New:   300.00
Detector changeover Changed: 2024-09-06 2:26:10 PM, Old:   800.00, New:   900.00
Grating changeover Changed: 2024-09-06 2:26:10 PM, Old:   800.00, New:   900.00
Baseline Correction Changed: 2024-09-06 2:26:10 PM, Old:0, New:2
Sipper Type Changed: 2024-09-06 2:26:10 PM, Old:Internal RSA, New:External sipper
End Method Modifications
<Current Wavelength> , 300.000
<SBW (nm)> , 2.00
<Energy> , 45.71
<Slit Height> , Full

non-imine polymer 0.5% TFA,
non-imine polymer 0.5% TFA
Collection Time: 2024-09-06 3:25:18 PM
Operator Name  :
Scan Version 6.4.0.1610
Parameter List :
Instrument  Cary 7000
Instrument Version  3.07
Method Log     :
Method Name    :
Date/Time stamp: 2024-09-06 2:24:00 PM
Method Modifications:
ConcentrationReportSelected Changed: 2024-09-06 2:24:01 PM, Old:Choice 0, New:Choice 1
ConcentrationReportSelected Changed: 2024-09-06 2:24:01 PM, Old:ON, New:Choice 0
MCAReportSelected Changed: 2024-09-06 2:24:01 PM, Old:Choice 0, New:Choice 1
MCAReportSelected Changed: 2024-09-06 2:24:01 PM, Old:ON, New:Choice 0
X Start nm Changed: 2024-09-06 2:26:10 PM, Old:800.000, New:1400.000
X Stop nm Changed: 2024-09-06 2:26:10 PM, Old:200.000, New:300.000
UVVIS Scan Rate nm Changed: 2024-09-06 2:26:10 PM, Old:  602.007, New:  600.000
NIR Scan Rate nm Changed: 2024-09-06 2:26:10 PM, Old:    0.004, New:   12.000
Common Interval nm Changed: 2024-09-06 2:26:10 PM, Old:    1.000, New:    0.667
Source changeover Changed: 2024-09-06 2:26:10 PM, Old:   350.00, New:   300.00
Detector changeover Changed: 2024-09-06 2:26:10 PM, Old:   800.00, New:   900.00
Grating changeover Changed: 2024-09-06 2:26:10 PM, Old:   800.00, New:   900.00
Baseline Correction Changed: 2024-09-06 2:26:10 PM, Old:0, New:2
Sipper Type Changed: 2024-09-06 2:26:10 PM, Old:Internal RSA, New:External sipper
End Method Modifications
<Current Wavelength> , 300.000
<SBW (nm)> , 2.00
<Energy> , 45.71
<Slit Height> , Full

non-imine polymer 1.0% TFA,
non-imine polymer 1.0% TFA
Collection Time: 2024-09-06 3:30:01 PM
Operator Name  :
Scan Version 6.4.0.1610
Parameter List :
Instrument  Cary 7000
Instrument Version  3.07
Method Log     :
Method Name    :
Date/Time stamp: 2024-09-06 2:24:00 PM
Method Modifications:
ConcentrationReportSelected Changed: 2024-09-06 2:24:01 PM, Old:Choice 0, New:Choice 1
ConcentrationReportSelected Changed: 2024-09-06 2:24:01 PM, Old:ON, New:Choice 0
MCAReportSelected Changed: 2024-09-06 2:24:01 PM, Old:Choice 0, New:Choice 1
MCAReportSelected Changed: 2024-09-06 2:24:01 PM, Old:ON, New:Choice 0
X Start nm Changed: 2024-09-06 2:26:10 PM, Old:800.000, New:1400.000
X Stop nm Changed: 2024-09-06 2:26:10 PM, Old:200.000, New:300.000
UVVIS Scan Rate nm Changed: 2024-09-06 2:26:10 PM, Old:  602.007, New:  600.000
NIR Scan Rate nm Changed: 2024-09-06 2:26:10 PM, Old:    0.004, New:   12.000
Common Interval nm Changed: 2024-09-06 2:26:10 PM, Old:    1.000, New:    0.667
Source changeover Changed: 2024-09-06 2:26:10 PM, Old:   350.00, New:   300.00
Detector changeover Changed: 2024-09-06 2:26:10 PM, Old:   800.00, New:   900.00
Grating changeover Changed: 2024-09-06 2:26:10 PM, Old:   800.00, New:   900.00
Baseline Correction Changed: 2024-09-06 2:26:10 PM, Old:0, New:2
Sipper Type Changed: 2024-09-06 2:26:10 PM, Old:Internal RSA, New:External sipper
End Method Modifications
<Current Wavelength> , 300.000
<SBW (nm)> , 2.00
<Energy> , 45.71
<Slit Height> , Full