File: UV-Vis data/2024_09/2024_09_03_imine FeCl3 doping.csv
imine undoped,,imine 1 min FeCl3 doping,,imine 10 min FeCl3,,imine 30 min FeCl3 doping,,imine polymer 1 hour FeCl3,,
Wavelength (nm),Abs,Wavelength (nm),Abs,Wavelength (nm),Abs,Wavelength (nm),Abs,Wavelength (nm),Abs,
1200,-0.0175043,1200,-0.0140852,1200,-0.0146954,1200,-0.0090797,1200,-0.0097495,
1198,-0.0171875,1198,-0.0140406,1198,-0.0144872,1198,-0.00911742,1198,-0.00973705,
1196,-0.0174095,1196,-0.0140547,1196,-0.0144593,1196,-0.00908325,1196,-0.00976246,
1194,-0.0173958,1194,-0.0141102,1194,-0.0144159,1194,-0.00917861,1194,-0.00977208,
1192,-0.0172712,1192,-0.0141514,1192,-0.0146479,1192,-0.0091523,1192,-0.00990367,
1190,-0.0173727,1190,-0.0140313,1190,-0.0144729,1190,-0.00909866,1190,-0.00966597,
1188,-0.0173409,1188,-0.0141708,1188,-0.0146326,1188,-0.0092891,1188,-0.0098396,
1186,-0.017366,1186,-0.0140264,1186,-0.0144127,1186,-0.00888999,1186,-0.00969422,
1184,-0.0174783,1184,-0.0142888,1184,-0.0147301,1184,-0.00927557,1184,-0.00993555,
1182,-0.0173006,1182,-0.0140158,1182,-0.014282,1182,-0.00906292,1182,-0.00962809,
1180,-0.0171308,1180,-0.0141145,1180,-0.0144317,1180,-0.00912883,1180,-0.00979754,
1178,-0.0169263,1178,-0.0140005,1178,-0.0143186,1178,-0.00906997,1178,-0.00966455,
1176,-0.0170251,1176,-0.0139898,1176,-0.0145863,1176,-0.00910992,1176,-0.00947757,
1174,-0.0169312,1174,-0.0139742,1174,-0.0143721,1174,-0.00897662,1174,-0.00948117,
1172,-0.0169522,1172,-0.0140066,1172,-0.0143088,1172,-0.00905075,1172,-0.00955233,
1170,-0.0171495,1170,-0.014099,1170,-0.0144293,1170,-0.00903879,1170,-0.00971933,
1168,-0.0170552,1168,-0.013947,1168,-0.0143261,1168,-0.00898929,1168,-0.00958576,
1166,-0.0166961,1166,-0.0139233,1166,-0.0144096,1166,-0.00884606,1166,-0.00945761,
1164,-0.0169357,1164,-0.0138066,1164,-0.0142964,1164,-0.00895339,1164,-0.0094184,
1162,-0.0169613,1162,-0.0139435,1162,-0.0143425,1162,-0.00896845,1162,-0.0096331,
1160,-0.0168239,1160,-0.0138075,1160,-0.0142722,1160,-0.00895826,1160,-0.00941658,
1158,-0.0168479,1158,-0.0137508,1158,-0.0141223,1158,-0.00890592,1158,-0.00936242,
1156,-0.016623,1156,-0.0138358,1156,-0.0142333,1156,-0.00889983,1156,-0.00936495,
1154,-0.0167961,1154,-0.0138317,1154,-0.0142198,1154,-0.00898833,1154,-0.00937149,
1152,-0.0166971,1152,-0.0137102,1152,-0.0140027,1152,-0.00885463,1152,-0.00937813,
1150,-0.0168451,1150,-0.0137647,1150,-0.0142429,1150,-0.00905065,1150,-0.00961751,
1148,-0.016682,1148,-0.0138238,1148,-0.014068,1148,-0.00891855,1148,-0.00942165,
1146,-0.0168098,1146,-0.0137049,1146,-0.0142194,1146,-0.00903437,1146,-0.00952412,
1144,-0.0168275,1144,-0.0139506,1144,-0.0142523,1144,-0.00926356,1144,-0.00951034,
1142,-0.0168614,1142,-0.0138247,1142,-0.0142704,1142,-0.00896115,1142,-0.00945473,
1140,-0.0166306,1140,-0.0136898,1140,-0.0142333,1140,-0.00886442,1140,-0.00936288,
1138,-0.0165482,1138,-0.0137773,1138,-0.014168,1138,-0.00883891,1138,-0.00935664,
1136,-0.0166364,1136,-0.0136419,1136,-0.0140967,1136,-0.00900314,1136,-0.00909354,
1134,-0.0163677,1134,-0.0135214,1134,-0.0139496,1134,-0.00890049,1134,-0.00930536,
1132,-0.0165912,1132,-0.0137622,1132,-0.0142664,1132,-0.00900628,1132,-0.00933156,
1130,-0.0165513,1130,-0.0136775,1130,-0.0142294,1130,-0.0089368,1130,-0.00945224,
1128,-0.0164099,1128,-0.0136454,1128,-0.0140139,1128,-0.00889136,1128,-0.0091707,
1126,-0.0164882,1126,-0.0136558,1126,-0.0141711,1126,-0.00894411,1126,-0.00926964,
1124,-0.0163817,1124,-0.0135544,1124,-0.0140593,1124,-0.00880959,1124,-0.00925144,
1122,-0.0162378,1122,-0.0135714,1122,-0.0139121,1122,-0.00877585,1122,-0.00911945,
1120,-0.0163309,1120,-0.0135468,1120,-0.0140916,1120,-0.00878752,1120,-0.0092002,
1118,-0.0163131,1118,-0.0135633,1118,-0.0140928,1118,-0.00882227,1118,-0.00921799,
1116,-0.0164756,1116,-0.0136314,1116,-0.0140334,1116,-0.00891931,1116,-0.00932406,
1114,-0.0164272,1114,-0.0134794,1114,-0.0140667,1114,-0.0087966,1114,-0.00934899,
1112,-0.0163313,1112,-0.0135425,1112,-0.0140499,1112,-0.00887645,1112,-0.00928221,
1110,-0.016242,1110,-0.0134633,1110,-0.0139552,1110,-0.00868167,1110,-0.0091593,
1108,-0.016261,1108,-0.0134298,1108,-0.0138792,1108,-0.0086461,1108,-0.00919245,
1106,-0.0163774,1106,-0.0135341,1106,-0.0141241,1106,-0.00885859,1106,-0.00920558,
1104,-0.0164825,1104,-0.0136508,1104,-0.013912,1104,-0.0088311,1104,-0.00929224,
1102,-0.0161844,1102,-0.0135329,1102,-0.0138568,1102,-0.00879766,1102,-0.00902073,
1100,-0.0162842,1100,-0.0133396,1100,-0.0139403,1100,-0.00873922,1100,-0.00911271,
1098,-0.0161203,1098,-0.0133615,1098,-0.0138763,1098,-0.00874865,1098,-0.00906652,
1096,-0.0162012,1096,-0.0135402,1096,-0.013906,1096,-0.00871395,1096,-0.00918677,
1094,-0.0161288,1094,-0.0132334,1094,-0.0136493,1094,-0.00853194,1094,-0.00902885,
1092,-0.0160798,1092,-0.013263,1092,-0.0138492,1092,-0.00845284,1092,-0.00904918,
1090,-0.0161324,1090,-0.0134121,1090,-0.0138608,1090,-0.00868999,1090,-0.00911195,
1088,-0.0161476,1088,-0.0134323,1088,-0.0138389,1088,-0.00872404,1088,-0.00916893,
1086,-0.0160494,1086,-0.0133314,1086,-0.0138475,1086,-0.00875002,1086,-0.00910875,
1084,-0.0160148,1084,-0.0132086,1084,-0.0137431,1084,-0.00858803,1084,-0.00894827,
1082,-0.0159454,1082,-0.0129746,1082,-0.0136475,1082,-0.00837926,1082,-0.00881618,
1080,-0.0160527,1080,-0.0131336,1080,-0.0137524,1080,-0.00871618,1080,-0.00887685,
1078,-0.0159023,1078,-0.0131597,1078,-0.0136484,1078,-0.00853849,1078,-0.00873333,
1076,-0.0159777,1076,-0.0131405,1076,-0.0137028,1076,-0.00857615,1076,-0.00879021,
1074,-0.015977,1074,-0.0132116,1074,-0.0137463,1074,-0.00857027,1074,-0.00883957,
1072,-0.0158769,1072,-0.0129405,1072,-0.0136059,1072,-0.00837825,1072,-0.00877169,
1070,-0.0157812,1070,-0.0127708,1070,-0.0134314,1070,-0.00836941,1070,-0.00877077,
1068,-0.015935,1068,-0.0129881,1068,-0.013632,1068,-0.0083915,1068,-0.00885377,
1066,-0.015733,1066,-0.0130284,1066,-0.01344,1066,-0.00832635,1066,-0.00884231,
1064,-0.015698,1064,-0.0129466,1064,-0.0136691,1064,-0.00822105,1064,-0.00871603,
1062,-0.0158161,1062,-0.0130053,1062,-0.013647,1062,-0.00830791,1062,-0.00866655,
1060,-0.0155611,1060,-0.0127741,1060,-0.0134193,1060,-0.00811308,1060,-0.00861052,
1058,-0.0156288,1058,-0.0128127,1058,-0.0133853,1058,-0.00822039,1058,-0.00839089,
1056,-0.015689,1056,-0.0128008,1056,-0.0135528,1056,-0.00841583,1056,-0.00867127,
1054,-0.0154127,1054,-0.0126729,1054,-0.0134505,1054,-0.00818213,1054,-0.00854077,
1052,-0.015733,1052,-0.0129028,1052,-0.013595,1052,-0.00822095,1052,-0.00872399,
1050,-0.0155472,1050,-0.0126933,1050,-0.0135294,1050,-0.00835311,1050,-0.00862508,
1048,-0.0156731,1048,-0.0128561,1048,-0.0136762,1048,-0.00828241,1048,-0.00871674,
1046,-0.0154927,1046,-0.0126333,1046,-0.0134752,1046,-0.00817939,1046,-0.00860849,
1044,-0.0155719,1044,-0.0128651,1044,-0.013498,1044,-0.00831497,1044,-0.00863092,
1042,-0.0154129,1042,-0.0127207,1042,-0.0131984,1042,-0.00820159,1042,-0.0085062,
1040,-0.0154498,1040,-0.0125433,1040,-0.0132854,1040,-0.00819148,1040,-0.00852448,
1038,-0.0155568,1038,-0.0126257,1038,-0.0134114,1038,-0.00806206,1038,-0.00856621,
1036,-0.0154555,1036,-0.0125579,1036,-0.0133834,1036,-0.00801891,1036,-0.00841953,
1034,-0.0153656,1034,-0.0125411,1034,-0.0133262,1034,-0.00805576,1034,-0.00834839,
1032,-0.0152727,1032,-0.0125123,1032,-0.0131962,1032,-0.00782792,1032,-0.00820499,
1030,-0.0155611,1030,-0.0126326,1030,-0.0133334,1030,-0.00801703,1030,-0.0083527,
1028,-0.0151117,1028,-0.0122902,1028,-0.0130852,1028,-0.00788278,1028,-0.00826738,
1026,-0.0152352,1026,-0.0125516,1026,-0.0130623,1026,-0.00786128,1026,-0.00815622,
1024,-0.015273,1024,-0.0125613,1024,-0.0132438,1024,-0.00802903,1024,-0.00842304,
1022,-0.0151408,1022,-0.0124429,1022,-0.0130951,1022,-0.00793576,1022,-0.00820931,
1020,-0.0152472,1020,-0.0124384,1020,-0.0132149,1020,-0.00793637,1020,-0.00831197,
1018,-0.015299,1018,-0.0123446,1018,-0.0130935,1018,-0.0078776,1018,-0.00821439,
1016,-0.0151991,1016,-0.0122809,1016,-0.0130848,1016,-0.00781297,1016,-0.00817456,
1014,-0.0150461,1014,-0.0122033,1014,-0.0131313,1014,-0.00763288,1014,-0.0079872,
1012,-0.0151966,1012,-0.0122627,1012,-0.0130278,1012,-0.00769133,1012,-0.00829978,
1010,-0.0151055,1010,-0.0122236,1010,-0.0129432,1010,-0.00778679,1010,-0.00823527,
1008,-0.0149387,1008,-0.0122218,1008,-0.0128306,1008,-0.00766493,1008,-0.00805607,
1006,-0.0152381,1006,-0.0123745,1006,-0.0130367,1006,-0.00783809,1006,-0.00822664,
1004,-0.0152466,1004,-0.0122258,1004,-0.0130245,1004,-0.00768685,1004,-0.00815048,
1002,-0.0150051,1002,-0.0121472,1002,-0.01283,1002,-0.00767866,1002,-0.00797764,
1000,-0.0149117,1000,-0.0121049,1000,-0.0128224,1000,-0.00752624,1000,-0.00808991,
998,-0.0151341,998,-0.0123392,998,-0.0128995,998,-0.00764606,998,-0.00815505,
996,-0.0148284,996,-0.0122564,996,-0.0129842,996,-0.007669,996,-0.00803177,
994,-0.014973,994,-0.0121913,994,-0.0128293,994,-0.00749174,994,-0.00804488,
992,-0.0150401,992,-0.0123485,992,-0.012946,992,-0.00766747,992,-0.00805637,
990,-0.0150125,990,-0.0121326,990,-0.0129966,990,-0.00761772,990,-0.00804468,
988,-0.014899,988,-0.0120989,988,-0.0127473,988,-0.00760297,988,-0.00795263,
986,-0.0147474,986,-0.0119888,986,-0.0126674,986,-0.00751709,986,-0.0078298,
984,-0.0147831,984,-0.0121765,984,-0.0127602,984,-0.00751698,984,-0.00798644,
982,-0.0149678,982,-0.012373,982,-0.0129067,982,-0.00764794,982,-0.00802059,
980,-0.0150074,980,-0.0121672,980,-0.0130116,980,-0.00760633,980,-0.00801424,
978,-0.0149117,978,-0.0121372,978,-0.0126228,978,-0.00766121,978,-0.00799716,
976,-0.0146611,976,-0.0119567,976,-0.0126527,976,-0.00740564,976,-0.00799482,
974,-0.0147444,974,-0.0120323,974,-0.0127552,974,-0.00756634,974,-0.00803909,
972,-0.0147186,972,-0.0120929,972,-0.012576,972,-0.0075494,972,-0.00783514,
970,-0.0145996,970,-0.0119133,970,-0.012651,970,-0.00728418,970,-0.00788761,
968,-0.0147845,968,-0.012088,968,-0.0126242,968,-0.00762683,968,-0.00810333,
966,-0.0146978,966,-0.0119625,966,-0.0126399,966,-0.00722084,966,-0.00768487,
964,-0.0144874,964,-0.0118327,964,-0.0124282,964,-0.00731274,964,-0.0077491,
962,-0.0146942,962,-0.0118834,962,-0.0126124,962,-0.00745683,962,-0.00772983,
960,-0.0144062,960,-0.0118058,960,-0.0124422,960,-0.0073839,960,-0.00783189,
958,-0.0143998,958,-0.0118014,958,-0.0125431,958,-0.00733473,958,-0.0077848,
956,-0.0143331,956,-0.0118561,956,-0.0124456,956,-0.00732572,956,-0.0077551,
954,-0.0144604,954,-0.0116335,954,-0.0122582,954,-0.00732995,954,-0.00768751,
952,-0.01447,952,-0.0118801,952,-0.0124044,952,-0.00735402,952,-0.00765384,
950,-0.0144046,950,-0.0116739,950,-0.0123689,950,-0.007367,950,-0.00777016,
948,-0.0143601,948,-0.0117456,948,-0.0123509,948,-0.00735662,948,-0.00775546,
946,-0.0145048,946,-0.0115676,946,-0.0122789,946,-0.00725877,946,-0.00763146,
944,-0.0142797,944,-0.0115082,944,-0.0122938,944,-0.0071662,944,-0.00756379,
942,-0.0141564,942,-0.0114807,942,-0.0121548,942,-0.00711543,942,-0.00749953,
940,-0.0141056,940,-0.0114163,940,-0.0120311,940,-0.00706449,940,-0.00741933,
938,-0.0140676,938,-0.0115528,938,-0.0120853,938,-0.00695298,938,-0.00730409,
936,-0.0140374,936,-0.0114105,936,-0.0120454,936,-0.00726488,936,-0.0075094,
934,-0.0139781,934,-0.0114312,934,-0.0121502,934,-0.00693413,934,-0.00734053,
932,-0.0139687,932,-0.0114677,932,-0.0119227,932,-0.00717542,932,-0.00739485,
930,-0.0140903,930,-0.0115567,930,-0.0120906,930,-0.00722354,930,-0.00766208,
928,-0.0139452,928,-0.0114541,928,-0.0120056,928,-0.00708059,928,-0.0075958,
926,-0.0137206,926,-0.0113034,926,-0.0118787,926,-0.00693647,926,-0.00748935,
924,-0.0140473,924,-0.0115213,924,-0.0120102,924,-0.00700968,924,-0.0075122,
922,-0.0138709,922,-0.0114622,922,-0.0121597,922,-0.0069594,922,-0.00742645,
920,-0.0139579,920,-0.011297,920,-0.012001,920,-0.00698712,920,-0.00753876,
918,-0.0139729,918,-0.0114176,918,-0.0120292,918,-0.00703103,918,-0.00774427,
916,-0.013936,916,-0.0114271,916,-0.0121692,916,-0.00694182,916,-0.0076721,
914,-0.0138104,914,-0.0114189,914,-0.011972,914,-0.00699048,914,-0.00759722,
912,-0.0138309,912,-0.0113672,912,-0.0119856,912,-0.00730174,912,-0.00776365,
910,-0.0139912,910,-0.0114291,910,-0.0120283,910,-0.00722685,910,-0.00763853,
908,-0.0139936,908,-0.0115119,908,-0.0121369,908,-0.00714456,908,-0.00762942,
906,-0.013964,906,-0.0114711,906,-0.0122157,906,-0.00725007,906,-0.00784948,
904,-0.0137945,904,-0.0114011,904,-0.011949,904,-0.0069999,904,-0.007561,
902,-0.0139559,902,-0.0115519,902,-0.0120866,902,-0.0072155,902,-0.00784999,
900,-0.0137714,900,-0.0114303,900,-0.0120084,900,-0.00705365,900,-0.00769601,
898,-0.017373,898,-0.0127812,898,-0.0168218,898,-0.00231398,898,-0.0173767,
896,-0.0184669,896,-0.014935,896,-0.0167031,896,-0.00784867,896,-0.0110348,
894,-0.0190636,894,-0.014866,894,-0.0181791,894,-0.00829084,894,-0.00587692,
892,-0.0214932,892,-0.0174918,892,-0.0159462,892,-0.00191552,892,-0.011639,
890,-0.0213571,890,-0.020932,890,-0.0174821,890,-0.0141718,890,-0.0140355,
888,-0.0200934,888,-0.0125625,888,-0.0186233,888,-0.00922174,888,-0.00791939,
886,-0.0200864,886,-0.0170882,886,-0.0142008,886,-0.00684862,886,-0.0118436,
884,-0.0162292,884,-0.015216,884,-0.0144942,884,-0.0081268,884,-0.00731447,
882,-0.018973,882,-0.0160595,882,-0.0151707,882,-0.0118871,882,-0.0136425,
880,-0.0194219,880,-0.0193882,880,-0.0144757,880,-0.0123616,880,-0.0128262,
878,-0.0169997,878,-0.0188973,878,-0.0149997,878,-0.0104353,878,-0.0115791,
876,-0.0201139,876,-0.0183483,876,-0.0164832,876,-0.00727094,876,-0.0120325,
874,-0.0157042,874,-0.0129691,874,-0.01338,874,-0.0107167,874,-0.0105414,
872,-0.0180971,872,-0.0179492,872,-0.0168429,872,-0.0103545,872,-0.0110151,
870,-0.0175078,870,-0.0143374,870,-0.0175015,870,-0.0108853,870,-0.0123368,
868,-0.0184791,868,-0.0171547,868,-0.0156791,868,-0.0121293,868,-0.0123872,
866,-0.0169324,866,-0.0152082,866,-0.0168946,866,-0.00896952,866,-0.0116762,
864,-0.0165401,864,-0.0147345,864,-0.0149525,864,-0.0080644,864,-0.0106372,
862,-0.0165324,862,-0.0148494,862,-0.0155549,862,-0.00749388,862,-0.00866188,
860,-0.0169426,860,-0.0144976,860,-0.0140949,860,-0.0089789,860,-0.0106513,
858,-0.0176218,858,-0.0151929,858,-0.0152603,858,-0.0102499,858,-0.010433,
856,-0.0169372,856,-0.0150803,856,-0.0152466,856,-0.0101469,856,-0.0116257,
854,-0.0152005,854,-0.0136112,854,-0.0138918,854,-0.00783021,854,-0.0104925,
852,-0.0167823,852,-0.0138406,852,-0.0139157,852,-0.00970541,852,-0.0103277,
850,-0.015553,850,-0.0142254,850,-0.0148356,850,-0.0085161,850,-0.00953577,
848,-0.015725,848,-0.0146554,848,-0.0144474,848,-0.00877549,848,-0.00975477,
846,-0.0160896,846,-0.0135935,846,-0.0134193,846,-0.00939789,846,-0.00990261,
844,-0.0156518,844,-0.0136495,844,-0.0143956,844,-0.00864112,844,-0.0104448,
842,-0.0171358,842,-0.014668,842,-0.0148836,842,-0.00969665,842,-0.0107217,
840,-0.016024,840,-0.014447,840,-0.0142248,840,-0.00848732,840,-0.00991404,
838,-0.0160647,838,-0.0137966,838,-0.0144084,838,-0.00894355,838,-0.00978139,
836,-0.0164913,836,-0.0146196,836,-0.015004,836,-0.00901642,836,-0.0104168,
834,-0.0156528,834,-0.0140995,834,-0.0140586,834,-0.00824812,834,-0.00973204,
832,-0.015676,832,-0.0140511,832,-0.0141752,832,-0.00865554,832,-0.0100208,
830,-0.0161674,830,-0.014175,830,-0.0143447,830,-0.00880076,830,-0.010162,
828,-0.0153692,828,-0.0135355,828,-0.0138194,828,-0.0080895,828,-0.00989102,
826,-0.0157389,826,-0.0141738,826,-0.0143047,826,-0.00886742,826,-0.0100843,
824,-0.0158799,824,-0.0143857,824,-0.014518,824,-0.00901754,824,-0.00994203,
822,-0.0160902,822,-0.0144894,822,-0.0146185,822,-0.00855854,822,-0.0103747,
820,-0.016339,820,-0.0143717,820,-0.0144851,820,-0.00931048,820,-0.0104984,
818,-0.0159985,818,-0.014172,818,-0.0145306,818,-0.00864407,818,-0.00997208,
816,-0.0167045,816,-0.0148169,816,-0.0151568,816,-0.00868878,816,-0.0105265,
814,-0.0156882,814,-0.0136744,814,-0.014413,814,-0.00818061,814,-0.00952205,
812,-0.0161525,812,-0.0141788,812,-0.0140622,812,-0.00858514,812,-0.0101159,
810,-0.0159592,810,-0.0140994,810,-0.0138635,810,-0.00822659,810,-0.00965726,
808,-0.016171,808,-0.0145599,808,-0.0142955,808,-0.00874201,808,-0.00992447,
806,-0.0160336,806,-0.0147252,806,-0.0144258,806,-0.00864554,806,-0.010012,
804,-0.0161089,804,-0.0142801,804,-0.0139941,804,-0.00806384,804,-0.00942803,
802,-0.0159761,802,-0.0137522,802,-0.0138989,802,-0.00820982,802,-0.00939155,
800,-0.0159403,800,-0.0142063,800,-0.0141385,800,-0.00792386,800,-0.00937063,
798,-0.0155541,798,-0.0137017,798,-0.0139287,798,-0.00821287,798,-0.00949951,
796,-0.0151993,796,-0.0136923,796,-0.0131822,796,-0.00761823,796,-0.00910044,
794,-0.0156602,794,-0.013541,794,-0.0135212,794,-0.0078896,794,-0.00921972,
792,-0.0157276,792,-0.0138071,792,-0.0133645,792,-0.00758048,792,-0.00928489,
790,-0.0157235,790,-0.0134879,790,-0.0134711,790,-0.00764107,790,-0.0089469,
788,-0.0155997,788,-0.0137388,788,-0.0140128,788,-0.00789585,788,-0.00908827,
786,-0.0158992,786,-0.0136892,786,-0.01328,786,-0.00767164,786,-0.0089545,
784,-0.0154947,784,-0.0135382,784,-0.0133569,784,-0.00756344,784,-0.00876915,
782,-0.0154616,782,-0.0134777,782,-0.0132309,782,-0.00737891,782,-0.0086194,
780,-0.0155157,780,-0.0131869,780,-0.013024,780,-0.00708538,780,-0.00846848,
778,-0.0152308,778,-0.0131635,778,-0.0132016,778,-0.00704249,778,-0.00829211,
776,-0.0152,776,-0.013185,776,-0.0129757,776,-0.00696776,776,-0.00847569,
774,-0.0150798,774,-0.0130653,774,-0.0128676,774,-0.0066612,774,-0.00837622,
772,-0.0151428,772,-0.0132131,772,-0.0126644,772,-0.00661883,772,-0.00818213,
770,-0.015082,770,-0.0132005,770,-0.0125554,770,-0.00662811,770,-0.00824914,
768,-0.0146821,768,-0.0124421,768,-0.0122205,768,-0.00601424,768,-0.00742599,
766,-0.0147705,766,-0.0126048,766,-0.0122928,766,-0.00592237,766,-0.00795395,
764,-0.0147889,764,-0.0124313,764,-0.0124527,764,-0.00628457,764,-0.00748253,
762,-0.014725,762,-0.0124159,762,-0.0123012,762,-0.00584428,762,-0.00752782,
760,-0.0145428,760,-0.0124325,760,-0.0120469,760,-0.00566832,760,-0.00705288,
758,-0.0144826,758,-0.0125171,758,-0.0119871,758,-0.00570731,758,-0.0069218,
756,-0.0145196,756,-0.0119498,756,-0.0119482,756,-0.00569581,756,-0.00692445,
754,-0.014519,754,-0.0120949,754,-0.0118821,754,-0.00558706,754,-0.00681009,
752,-0.0147827,752,-0.0122666,752,-0.0116367,752,-0.00531789,752,-0.00676794,
750,-0.0143032,750,-0.0116561,750,-0.0115316,750,-0.00483668,750,-0.00635595,
748,-0.0142993,748,-0.0119263,748,-0.0116118,748,-0.00523672,748,-0.00668057,
746,-0.0143046,746,-0.0115105,746,-0.0110983,746,-0.00461027,746,-0.00612946,
744,-0.014012,744,-0.0115876,744,-0.0111753,744,-0.00467732,744,-0.00576648,
742,-0.0144241,742,-0.0114319,742,-0.0110064,742,-0.0044721,742,-0.00587012,
740,-0.0141689,740,-0.0116315,740,-0.0111734,740,-0.00452887,740,-0.00571656,
738,-0.0140246,738,-0.0114516,738,-0.0107066,738,-0.00412275,738,-0.00525866,
736,-0.0136521,736,-0.0108661,736,-0.0104292,736,-0.00379339,736,-0.00494603,
734,-0.0137479,734,-0.0108571,734,-0.010393,734,-0.00348011,734,-0.00496476,
732,-0.0138109,732,-0.0109707,732,-0.0102546,732,-0.00353634,732,-0.00486719,
730,-0.0138252,730,-0.0108839,730,-0.010131,730,-0.00342864,730,-0.00458814,
728,-0.0134828,728,-0.0105265,728,-0.00974338,728,-0.0027342,728,-0.00402581,
726,-0.0135906,726,-0.0106412,726,-0.0100351,726,-0.00273384,726,-0.00417372,
724,-0.0133948,724,-0.0102841,724,-0.00957046,724,-0.00252842,724,-0.00365454,
722,-0.0132042,722,-0.0102609,722,-0.00949201,722,-0.00237253,722,-0.00356977,
720,-0.013149,720,-0.00991936,720,-0.00928063,720,-0.00206858,720,-0.00319204,
718,-0.0129826,718,-0.00967832,718,-0.00881846,718,-0.00164458,718,-0.00278338,
716,-0.012852,716,-0.00972242,716,-0.00875058,716,-0.00142161,716,-0.00248698,
714,-0.0130932,714,-0.00962627,714,-0.00867863,714,-0.00113522,714,-0.00246783,
712,-0.0129983,712,-0.0095616,712,-0.00839795,712,-0.00103044,712,-0.00217013,
710,-0.0128963,710,-0.00939343,710,-0.00830715,710,-0.000652923,710,-0.00197078,
708,-0.0128915,708,-0.00904401,708,-0.00809987,708,-0.000472834,708,-0.00153517,
706,-0.0125971,706,-0.00895684,706,-0.00775373,706,-0.000228565,706,-0.00116078,
704,-0.0126862,704,-0.0088105,704,-0.00758272,704,0.000180514,704,-0.00102496,
702,-0.0123577,702,-0.0086497,702,-0.00725643,702,0.000631144,702,-0.00059621,
700,-0.0122661,700,-0.00840435,700,-0.0069726,700,0.000966129,700,-0.000237516,
698,-0.0121223,698,-0.00818173,698,-0.00652102,698,0.00129488,698,0.000190407,
696,-0.011918,696,-0.0079108,696,-0.00633299,696,0.00177638,696,0.000485892,
694,-0.0121312,694,-0.00787526,694,-0.00618035,694,0.00187355,694,0.000757125,
692,-0.0119269,692,-0.00746849,692,-0.00594515,692,0.00230356,692,0.00126881,
690,-0.0117818,690,-0.00737438,690,-0.00575197,690,0.00278536,690,0.00161107,
688,-0.0117364,688,-0.00717741,688,-0.00550901,688,0.00311477,688,0.00192019,
686,-0.011383,686,-0.00685744,686,-0.00494818,686,0.00360003,686,0.00258538,
684,-0.0116746,684,-0.00681468,684,-0.00479285,684,0.00385389,684,0.00276259,
682,-0.0115932,682,-0.00647925,682,-0.00448399,682,0.00424538,682,0.00318851,
680,-0.0113241,680,-0.00622639,680,-0.00414228,680,0.00457453,680,0.00370351,
678,-0.0111103,678,-0.00589913,678,-0.00388575,678,0.00513589,678,0.00409601,
676,-0.011037,676,-0.00578436,676,-0.00346336,676,0.00558779,676,0.00464828,
674,-0.0107986,674,-0.00540758,674,-0.00310657,674,0.00605788,674,0.00512007,
672,-0.0108594,672,-0.00532704,672,-0.00285915,672,0.00643774,672,0.0056212,
670,-0.0107,670,-0.00496717,670,-0.00252703,670,0.00685223,670,0.00600627,
668,-0.010493,668,-0.00460177,668,-0.00203885,668,0.00755787,668,0.0068004,
666,-0.010467,666,-0.00423396,666,-0.00153888,666,0.00792257,666,0.00723453,
664,-0.0104488,664,-0.00413377,664,-0.00143734,664,0.00844751,664,0.00759288,
662,-0.0103754,662,-0.00388427,662,-0.000890961,662,0.00884627,662,0.00813389,
660,-0.0100926,660,-0.00344888,660,-0.000488711,660,0.0094397,660,0.00874637,
658,-0.01011,658,-0.00324898,658,-0.000192031,658,0.00991731,658,0.0093332,
656,-0.00989593,656,-0.00284871,656,0.000377193,656,0.0105332,656,0.0099809,
654,-0.0100576,654,-0.00267256,654,0.000498358,654,0.0109347,654,0.0102778,
652,-0.0101039,652,-0.00252409,652,0.000835989,652,0.0114003,652,0.0107673,
650,-0.00990397,650,-0.00230111,650,0.00123849,650,0.0118939,650,0.0112558,
648,-0.010024,648,-0.00196547,648,0.00162747,648,0.0123405,648,0.0117286,
646,-0.00988844,646,-0.00166031,646,0.00201567,646,0.0127808,646,0.0123657,
644,-0.00983515,644,-0.0014215,644,0.00247787,644,0.013506,644,0.0130222,
642,-0.00958672,642,-0.000996966,642,0.0029655,642,0.0141008,642,0.0137024,
640,-0.00966014,640,-0.000769426,640,0.00343197,640,0.0146439,640,0.0141222,
638,-0.00943862,638,-0.000217439,638,0.00393917,638,0.0152765,638,0.0148969,
636,-0.00937879,636,-0.000108966,636,0.00431374,636,0.0158385,636,0.0153707,
634,-0.00912726,634,0.000230576,634,0.00496449,634,0.0165252,634,0.0160975,
632,-0.00871689,632,0.000890535,632,0.00556781,632,0.0173285,632,0.0170119,
630,-0.00869091,630,0.00135785,630,0.00620232,630,0.0179101,630,0.0174967,
628,-0.00844497,628,0.00175935,628,0.00678528,628,0.0186834,628,0.0181991,
626,-0.00794109,626,0.00244241,626,0.00731184,626,0.019447,626,0.0190923,
624,-0.00740955,624,0.00307198,624,0.00821989,624,0.0203546,624,0.0200178,
622,-0.00700174,622,0.00359685,622,0.00897431,622,0.0210369,622,0.0207323,
620,-0.00664615,620,0.00410518,620,0.00964244,620,0.0217849,620,0.0215545,
618,-0.00616387,618,0.00486621,618,0.0104842,618,0.0226825,618,0.0224945,
616,-0.00587426,616,0.00558808,616,0.0112463,616,0.0235982,616,0.0233269,
614,-0.00532269,614,0.00626215,614,0.0120738,614,0.0244692,614,0.0242395,
612,-0.00480576,612,0.00691077,612,0.0129358,612,0.0253112,612,0.0252005,
610,-0.00444443,610,0.00753914,610,0.0138332,610,0.0261045,610,0.0260327,
608,-0.00403391,608,0.00813938,608,0.0144497,608,0.027012,608,0.0269847,
606,-0.00371373,606,0.00872775,606,0.0151598,606,0.0277891,606,0.0278072,
604,-0.00335472,604,0.0093035,604,0.0158323,604,0.0284181,604,0.0285426,
602,-0.00314049,602,0.0097515,602,0.0164965,602,0.0292456,602,0.0293575,
600,-0.00283076,600,0.0102457,600,0.0170996,600,0.0299709,600,0.0300326,
598,-0.00247493,598,0.0107745,598,0.0177249,598,0.0306316,598,0.0308368,
596,-0.00207616,596,0.0114665,596,0.0184297,596,0.0314907,596,0.0314931,
594,-0.0016258,594,0.0122344,594,0.0192637,594,0.032372,594,0.0324065,
592,-0.000958173,592,0.0130998,592,0.0201181,592,0.0333104,592,0.0333126,
590,-0.000167036,590,0.0138906,590,0.0211113,590,0.0343473,590,0.034328,
588,0.000771232,588,0.0150631,588,0.0222608,588,0.035377,588,0.0352795,
586,0.00163991,586,0.0160313,586,0.0231816,586,0.0363284,586,0.0363438,
584,0.00299175,584,0.0174029,584,0.0246739,584,0.0377725,584,0.0377791,
582,0.00416694,582,0.0187675,582,0.0258825,582,0.0389061,582,0.0388441,
580,0.0056678,580,0.0202196,580,0.0275763,580,0.0404561,580,0.0402638,
578,0.00731234,578,0.0218324,578,0.0289832,578,0.0417653,578,0.0416303,
576,0.00889042,576,0.0235283,576,0.0306415,576,0.0432274,576,0.0429121,
574,0.010668,574,0.0254293,574,0.0323528,574,0.0449045,574,0.0445567,
572,0.0128633,572,0.0275066,572,0.0343009,572,0.0465835,572,0.0462625,
570,0.0152361,570,0.0298547,570,0.0364076,570,0.0484644,570,0.0477368,
568,0.0176622,568,0.0320369,568,0.0383745,568,0.0502387,568,0.0495918,
566,0.0206129,566,0.0346255,566,0.0407828,566,0.052275,566,0.0514345,
564,0.0235567,564,0.0372668,564,0.0431549,564,0.0542428,564,0.0527919,
562,0.0267325,562,0.040252,562,0.0457905,562,0.0566162,562,0.0553034,
560,0.0297448,560,0.0429899,560,0.0483015,560,0.0586192,560,0.0570969,
558,0.033061,558,0.0462032,558,0.0510981,558,0.0608462,558,0.0592651,
556,0.0366717,556,0.0492119,556,0.0536287,556,0.0630493,556,0.0613053,
554,0.0400535,554,0.0524306,554,0.0562234,554,0.065211,554,0.0632853,
552,0.0437223,552,0.0557925,552,0.0591595,552,0.0676226,552,0.0654244,
550,0.0474625,550,0.0590974,550,0.0619906,550,0.0699711,550,0.0675348,
548,0.0512434,548,0.0621681,548,0.064827,548,0.0722362,548,0.0696474,
546,0.0550136,546,0.0654852,546,0.0675704,546,0.0743058,546,0.0716175,
544,0.0587416,544,0.0688624,544,0.0705185,544,0.0769951,544,0.0739249,
542,0.0621029,542,0.071759,542,0.0729344,542,0.0787231,542,0.0756035,
540,0.0654524,540,0.074565,540,0.0753163,540,0.0807293,540,0.0773337,
538,0.0689573,538,0.0777188,538,0.0779062,538,0.0829043,538,0.0794993,
536,0.0721214,536,0.0802149,536,0.0802763,536,0.0847562,536,0.0809831,
534,0.0753002,534,0.0828531,534,0.0825175,534,0.0865941,534,0.0826368,
532,0.0785011,532,0.0858133,532,0.0849304,532,0.0886521,532,0.0845635,
530,0.0815921,530,0.0883025,530,0.0871625,530,0.0904637,530,0.0860429,
528,0.0844774,528,0.090685,528,0.0892085,528,0.0922067,528,0.0876587,
526,0.0874517,526,0.0934083,526,0.0914572,526,0.0941151,526,0.0894571,
524,0.0905713,524,0.0957795,524,0.0937259,524,0.0957364,524,0.0910447,
522,0.0936747,522,0.098535,522,0.0960186,522,0.0977441,522,0.0927976,
520,0.0966735,520,0.100994,520,0.0981031,520,0.0995086,520,0.0944322,
518,0.0996387,518,0.103455,518,0.100344,518,0.101287,518,0.0961359,
516,0.102504,516,0.105797,516,0.102349,516,0.102862,516,0.0974509,
514,0.1056,514,0.108465,514,0.104667,514,0.104922,514,0.0994578,
512,0.108511,512,0.110963,512,0.106899,512,0.106708,512,0.100992,
510,0.111473,510,0.11331,510,0.108965,510,0.108489,510,0.102542,
508,0.114273,508,0.115698,508,0.111073,508,0.11019,508,0.104137,
506,0.117177,506,0.118008,506,0.113145,506,0.112034,506,0.105775,
504,0.11996,504,0.120424,504,0.115263,504,0.11369,504,0.107354,
502,0.122545,502,0.122459,502,0.117124,502,0.115314,502,0.108822,
500,0.12498,500,0.124585,500,0.118828,500,0.116885,500,0.110284,
498,0.127364,498,0.126456,498,0.120622,498,0.118504,498,0.111641,
496,0.129599,496,0.128256,496,0.122234,496,0.119796,496,0.112801,
494,0.131616,494,0.129973,494,0.123789,494,0.121288,494,0.114258,
492,0.133474,492,0.131409,492,0.125093,492,0.122239,492,0.115359,
490,0.135117,490,0.132604,490,0.126417,490,0.123304,490,0.116166,
488,0.136933,488,0.134179,488,0.127833,488,0.124783,488,0.117593,
486,0.138384,486,0.135213,486,0.128862,486,0.125812,486,0.11839,
484,0.139775,484,0.136496,484,0.130062,484,0.126656,484,0.119354,
482,0.141188,482,0.137409,482,0.13105,482,0.127752,482,0.120296,
480,0.142457,480,0.138544,480,0.132011,480,0.128693,480,0.12119,
478,0.143518,478,0.139246,478,0.132866,478,0.129461,478,0.122027,
476,0.144528,476,0.14007,476,0.133756,476,0.130309,476,0.122766,
474,0.145455,474,0.140636,474,0.134343,474,0.131089,474,0.123534,
472,0.146277,472,0.141441,472,0.135094,472,0.131738,472,0.124186,
470,0.146892,470,0.141988,470,0.135634,470,0.13237,470,0.124786,
468,0.147586,468,0.142344,468,0.136149,468,0.132919,468,0.125273,
466,0.147975,466,0.142649,466,0.136518,466,0.13355,466,0.125831,
464,0.148293,464,0.142814,464,0.136898,464,0.133932,464,0.126385,
462,0.148316,462,0.142672,462,0.137081,462,0.134142,462,0.12666,
460,0.148361,460,0.14271,460,0.137121,460,0.134606,460,0.126887,
458,0.147978,458,0.142268,458,0.136907,458,0.134467,458,0.127067,
456,0.147766,456,0.141911,456,0.136859,456,0.134645,456,0.127204,
454,0.147479,454,0.141775,454,0.136636,454,0.134782,454,0.127209,
452,0.146639,452,0.140873,452,0.136206,452,0.134466,452,0.127045,
450,0.145897,450,0.140316,450,0.135809,450,0.134353,450,0.126988,
448,0.14528,448,0.139538,448,0.135266,448,0.134082,448,0.127004,
446,0.144319,446,0.138754,446,0.134544,446,0.133769,446,0.126649,
444,0.143204,444,0.137801,444,0.133847,444,0.133355,444,0.126345,
442,0.142168,442,0.136696,442,0.133049,442,0.132718,442,0.125986,
440,0.141051,440,0.135706,440,0.132183,440,0.132228,440,0.125575,
438,0.139601,438,0.134552,438,0.131369,438,0.131673,438,0.125043,
436,0.138368,436,0.133258,436,0.130465,436,0.130842,436,0.124552,
434,0.136725,434,0.131743,434,0.129046,434,0.129957,434,0.123667,
432,0.135138,432,0.130345,432,0.127611,432,0.129071,432,0.122862,
430,0.133499,430,0.128875,430,0.126525,430,0.128114,430,0.121918,
428,0.131468,428,0.127084,428,0.125037,428,0.12705,428,0.121052,
426,0.129808,426,0.1255,426,0.123869,426,0.125896,426,0.120115,
424,0.127661,424,0.123666,424,0.122037,424,0.124509,424,0.11891,
422,0.125534,422,0.121663,422,0.120225,422,0.123087,422,0.117507,
420,0.123364,420,0.119627,420,0.118809,420,0.121628,420,0.116135,
418,0.12109,418,0.117579,418,0.11671,418,0.120027,418,0.114817,
416,0.118749,416,0.115699,416,0.115046,416,0.118727,416,0.113576,
414,0.116436,414,0.113554,414,0.113062,414,0.116855,414,0.111974,
412,0.114144,412,0.111387,412,0.111173,412,0.115326,412,0.110463,
410,0.112034,410,0.109592,410,0.10947,410,0.113858,410,0.108858,
408,0.109616,408,0.107301,408,0.107266,408,0.112068,408,0.107426,
406,0.107555,406,0.105529,406,0.105746,406,0.110648,406,0.106225,
404,0.105133,404,0.103383,404,0.103771,404,0.108774,404,0.104484,
402,0.10334,402,0.101673,402,0.102052,402,0.107294,402,0.102955,
400,0.101479,400,0.0997414,400,0.100355,400,0.105852,400,0.101699,
398,0.0995617,398,0.0983062,398,0.0988786,398,0.104656,398,0.100573,
396,0.0980372,396,0.0965821,396,0.0975801,396,0.103347,396,0.0990734,
394,0.0970855,394,0.0960568,394,0.0968418,394,0.102629,394,0.0984747,
392,0.0957987,392,0.0949256,392,0.0958135,392,0.101559,392,0.0974889,
390,0.095241,390,0.0942709,390,0.095004,390,0.101206,390,0.0968917,
388,0.0947261,388,0.0938646,388,0.0944633,388,0.100785,388,0.0964239,
386,0.0948225,386,0.0937387,386,0.0944551,386,0.100559,386,0.096175,
384,0.0948675,384,0.0938302,384,0.0944788,384,0.100388,384,0.096041,
382,0.0955007,382,0.09426,382,0.0949117,382,0.100779,382,0.0962771,
380,0.0963169,380,0.0952677,380,0.0953115,380,0.101158,380,0.096471,
378,0.0971473,378,0.0956272,378,0.0957623,378,0.101525,378,0.0965577,
376,0.0986264,376,0.0969823,376,0.0968531,376,0.102254,376,0.0975585,
374,0.0994378,374,0.0976828,374,0.0975288,374,0.102783,374,0.0978651,
372,0.100815,372,0.0990022,372,0.0985914,372,0.103872,372,0.0987091,
370,0.10147,370,0.0994875,370,0.0989799,370,0.104164,370,0.0987338,
368,0.102714,368,0.100487,368,0.0996166,368,0.104738,368,0.0989702,
366,0.1035,366,0.10121,366,0.100204,366,0.105068,366,0.0995213,
364,0.104286,364,0.101577,364,0.100737,364,0.105381,364,0.0995201,
362,0.104697,362,0.101555,362,0.100671,362,0.105264,362,0.0991627,
360,0.105086,360,0.101737,360,0.10072,360,0.1052,360,0.0991474,
358,0.105018,358,0.10198,358,0.100757,358,0.10513,358,0.098717,
356,0.104719,356,0.101115,356,0.100058,356,0.104106,356,0.0979781,
354,0.104517,354,0.101082,354,0.0995042,354,0.103649,354,0.0975319,
352,0.103986,352,0.0999896,352,0.0985983,352,0.1031,352,0.0964062,
350,0.103019,350,0.0988648,350,0.0971515,350,0.101737,350,0.095137,
348,0.102291,348,0.0978152,348,0.095986,348,0.100358,348,0.0938736,
346,0.100502,346,0.0960197,346,0.0942412,346,0.0985136,346,0.0923765,
344,0.0986459,344,0.0941167,344,0.0924455,344,0.096484,344,0.0901959,
342,0.0966297,342,0.0917781,342,0.0900076,342,0.0941644,342,0.088031,
340,0.0941827,340,0.0893977,340,0.0876945,340,0.0918095,340,0.0855332,
338,0.0908665,338,0.0863672,338,0.0844894,338,0.088795,338,0.082655,
336,0.0887604,336,0.0840006,336,0.0826453,336,0.0866886,336,0.0806942,
334,0.0849134,334,0.0801958,334,0.078761,334,0.083178,334,0.0774253,
332,0.0816676,332,0.0767712,332,0.0753961,332,0.08005,332,0.0743455,
330,0.0781631,330,0.0736654,330,0.0720787,330,0.0763971,330,0.0709546,
328,0.0737349,328,0.0693109,328,0.0678893,328,0.072489,328,0.0670933,
326,0.0701639,326,0.0653738,326,0.0637602,326,0.06882,326,0.0639933,
324,0.0659559,324,0.0614537,324,0.0600708,324,0.0648876,324,0.0602686,
322,0.0613445,322,0.0571891,322,0.0560873,322,0.0616635,322,0.0569624,
320,0.0579838,320,0.0533461,320,0.0520369,320,0.0581716,320,0.0534967,
318,0.0531912,318,0.0490988,318,0.0481184,318,0.0542504,318,0.0497868,
316,0.0499241,316,0.0446442,316,0.0441465,316,0.0508874,316,0.0470191,
314,0.0456227,314,0.0410994,314,0.0406105,314,0.0474308,314,0.0438455,
312,0.0419452,312,0.037943,312,0.0373439,312,0.0445073,312,0.0410253,
310,0.0381808,310,0.0343261,310,0.0338465,310,0.0417729,310,0.0378211,
308,0.0349985,308,0.0303801,308,0.0305919,308,0.0387993,308,0.0357092,
306,0.0323257,306,0.0279391,306,0.0277734,306,0.0365741,306,0.0328974,
304,0.0289742,304,0.025536,304,0.0248591,304,0.0338285,304,0.0305583,
302,0.0260666,302,0.0226303,302,0.0228861,302,0.0321337,302,0.0289972,
300.667,0.0245624,300.667,0.0212395,300.667,0.0215932,300.667,0.0310563,300.667,0.0280184,

imine undoped,
imine undoped
Collection Time: 2024-09-03 1:50:45 PM
Operator Name  :
Scan Version 6.4.0.1610
Parameter List :
Instrument  Cary 7000
Instrument Version  3.07
Method Log     :
Method Name    :
Date/Time stamp: 2024-09-03 1:29:02 PM
Method Modifications:
ConcentrationReportSelected Changed: 2024-09-03 1:29:03 PM, Old:Choice 0, New:Choice 1
ConcentrationReportSelected Changed: 2024-09-03 1:29:03 PM, Old:ON, New:Choice 0
MCAReportSelected Changed: 2024-09-03 1:29:03 PM, Old:Choice 0, New:Choice 1
MCAReportSelected Changed: 2024-09-03 1:29:03 PM, Old:ON, New:Choice 0
X Start nm Changed: 2024-09-03 1:30:02 PM, Old:800.000, New:1200.000
X Stop nm Changed: 2024-09-03 1:30:02 PM, Old:200.000, New:300.000
UVVIS Scan Rate nm Changed: 2024-09-03 1:30:02 PM, Old:  602.007, New:  600.000
NIR Scan Rate nm Changed: 2024-09-03 1:30:02 PM, Old:    0.004, New:   12.000
Common Interval nm Changed: 2024-09-03 1:30:02 PM, Old:    1.000, New:    0.667
Source changeover Changed: 2024-09-03 1:30:02 PM, Old:   350.00, New:   300.00
Detector changeover Changed: 2024-09-03 1:30:02 PM, Old:   800.00, New:   900.00
Grating changeover Changed: 2024-09-03 1:30:02 PM, Old:   800.00, New:   900.00
Baseline Correction Changed: 2024-09-03 1:30:02 PM, Old:0, New:2
Sipper Type Changed: 2024-09-03 1:30:02 PM, Old:Internal RSA, New:External sipper
End Method Modifications
<Current Wavelength> , 300.000
<SBW (nm)> , 2.00
<Energy> , 91.20
<Slit Height> , Full

imine 1 min FeCl3 doping,
imine 1 min FeCl3 doping
Collection Time: 2024-09-03 2:09:57 PM
Operator Name  :
Scan Version 6.4.0.1610
Parameter List :
Instrument  Cary 7000
Instrument Version  3.07
Method Log     :
Method Name    :
Date/Time stamp: 2024-09-03 1:29:02 PM
Method Modifications:
ConcentrationReportSelected Changed: 2024-09-03 1:29:03 PM, Old:Choice 0, New:Choice 1
ConcentrationReportSelected Changed: 2024-09-03 1:29:03 PM, Old:ON, New:Choice 0
MCAReportSelected Changed: 2024-09-03 1:29:03 PM, Old:Choice 0, New:Choice 1
MCAReportSelected Changed: 2024-09-03 1:29:03 PM, Old:ON, New:Choice 0
X Start nm Changed: 2024-09-03 1:30:02 PM, Old:800.000, New:1200.000
X Stop nm Changed: 2024-09-03 1:30:02 PM, Old:200.000, New:300.000
UVVIS Scan Rate nm Changed: 2024-09-03 1:30:02 PM, Old:  602.007, New:  600.000
NIR Scan Rate nm Changed: 2024-09-03 1:30:02 PM, Old:    0.004, New:   12.000
Common Interval nm Changed: 2024-09-03 1:30:02 PM, Old:    1.000, New:    0.667
Source changeover Changed: 2024-09-03 1:30:02 PM, Old:   350.00, New:   300.00
Detector changeover Changed: 2024-09-03 1:30:02 PM, Old:   800.00, New:   900.00
Grating changeover Changed: 2024-09-03 1:30:02 PM, Old:   800.00, New:   900.00
Baseline Correction Changed: 2024-09-03 1:30:02 PM, Old:0, New:2
Sipper Type Changed: 2024-09-03 1:30:02 PM, Old:Internal RSA, New:External sipper
End Method Modifications
<Current Wavelength> , 300.000
<SBW (nm)> , 2.00
<Energy> , 91.20
<Slit Height> , Full

imine 10 min FeCl3,
imine 10 min FeCl3
Collection Time: 2024-09-03 2:46:42 PM
Operator Name  :
Scan Version 6.4.0.1610
Parameter List :
Instrument  Cary 7000
Instrument Version  3.07
Method Log     :
Method Name    :
Date/Time stamp: 2024-09-03 1:29:02 PM
Method Modifications:
ConcentrationReportSelected Changed: 2024-09-03 1:29:03 PM, Old:Choice 0, New:Choice 1
ConcentrationReportSelected Changed: 2024-09-03 1:29:03 PM, Old:ON, New:Choice 0
MCAReportSelected Changed: 2024-09-03 1:29:03 PM, Old:Choice 0, New:Choice 1
MCAReportSelected Changed: 2024-09-03 1:29:03 PM, Old:ON, New:Choice 0
X Start nm Changed: 2024-09-03 1:30:02 PM, Old:800.000, New:1200.000
X Stop nm Changed: 2024-09-03 1:30:02 PM, Old:200.000, New:300.000
UVVIS Scan Rate nm Changed: 2024-09-03 1:30:02 PM, Old:  602.007, New:  600.000
NIR Scan Rate nm Changed: 2024-09-03 1:30:02 PM, Old:    0.004, New:   12.000
Common Interval nm Changed: 2024-09-03 1:30:02 PM, Old:    1.000, New:    0.667
Source changeover Changed: 2024-09-03 1:30:02 PM, Old:   350.00, New:   300.00
Detector changeover Changed: 2024-09-03 1:30:02 PM, Old:   800.00, New:   900.00
Grating changeover Changed: 2024-09-03 1:30:02 PM, Old:   800.00, New:   900.00
Baseline Correction Changed: 2024-09-03 1:30:02 PM, Old:0, New:2
Sipper Type Changed: 2024-09-03 1:30:02 PM, Old:Internal RSA, New:External sipper
End Method Modifications
<Current Wavelength> , 300.000
<SBW (nm)> , 2.00
<Energy> , 91.20
<Slit Height> , Full

imine 30 min FeCl3 doping,
imine 30 min FeCl3 doping
Collection Time: 2024-09-03 3:22:30 PM
Operator Name  :
Scan Version 6.4.0.1610
Parameter List :
Instrument  Cary 7000
Instrument Version  3.07
Method Log     :
Method Name    :
Date/Time stamp: 2024-09-03 1:29:02 PM
Method Modifications:
ConcentrationReportSelected Changed: 2024-09-03 1:29:03 PM, Old:Choice 0, New:Choice 1
ConcentrationReportSelected Changed: 2024-09-03 1:29:03 PM, Old:ON, New:Choice 0
MCAReportSelected Changed: 2024-09-03 1:29:03 PM, Old:Choice 0, New:Choice 1
MCAReportSelected Changed: 2024-09-03 1:29:03 PM, Old:ON, New:Choice 0
X Start nm Changed: 2024-09-03 1:30:02 PM, Old:800.000, New:1200.000
X Stop nm Changed: 2024-09-03 1:30:02 PM, Old:200.000, New:300.000
UVVIS Scan Rate nm Changed: 2024-09-03 1:30:02 PM, Old:  602.007, New:  600.000
NIR Scan Rate nm Changed: 2024-09-03 1:30:02 PM, Old:    0.004, New:   12.000
Common Interval nm Changed: 2024-09-03 1:30:02 PM, Old:    1.000, New:    0.667
Source changeover Changed: 2024-09-03 1:30:02 PM, Old:   350.00, New:   300.00
Detector changeover Changed: 2024-09-03 1:30:02 PM, Old:   800.00, New:   900.00
Grating changeover Changed: 2024-09-03 1:30:02 PM, Old:   800.00, New:   900.00
Baseline Correction Changed: 2024-09-03 1:30:02 PM, Old:0, New:2
Sipper Type Changed: 2024-09-03 1:30:02 PM, Old:Internal RSA, New:External sipper
End Method Modifications
<Current Wavelength> , 300.000
<SBW (nm)> , 2.00
<Energy> , 91.20
<Slit Height> , Full

imine polymer 1 hour FeCl3,
imine polymer 1 hour FeCl3
Collection Time: 2024-09-03 4:25:43 PM
Operator Name  :
Scan Version 6.4.0.1610
Parameter List :
Instrument  Cary 7000
Instrument Version  3.07
Method Log     :
Method Name    :
Date/Time stamp: 2024-09-03 1:29:02 PM
Method Modifications:
ConcentrationReportSelected Changed: 2024-09-03 1:29:03 PM, Old:Choice 0, New:Choice 1
ConcentrationReportSelected Changed: 2024-09-03 1:29:03 PM, Old:ON, New:Choice 0
MCAReportSelected Changed: 2024-09-03 1:29:03 PM, Old:Choice 0, New:Choice 1
MCAReportSelected Changed: 2024-09-03 1:29:03 PM, Old:ON, New:Choice 0
X Start nm Changed: 2024-09-03 1:30:02 PM, Old:800.000, New:1200.000
X Stop nm Changed: 2024-09-03 1:30:02 PM, Old:200.000, New:300.000
UVVIS Scan Rate nm Changed: 2024-09-03 1:30:02 PM, Old:  602.007, New:  600.000
NIR Scan Rate nm Changed: 2024-09-03 1:30:02 PM, Old:    0.004, New:   12.000
Common Interval nm Changed: 2024-09-03 1:30:02 PM, Old:    1.000, New:    0.667
Source changeover Changed: 2024-09-03 1:30:02 PM, Old:   350.00, New:   300.00
Detector changeover Changed: 2024-09-03 1:30:02 PM, Old:   800.00, New:   900.00
Grating changeover Changed: 2024-09-03 1:30:02 PM, Old:   800.00, New:   900.00
Baseline Correction Changed: 2024-09-03 1:30:02 PM, Old:0, New:2
Sipper Type Changed: 2024-09-03 1:30:02 PM, Old:Internal RSA, New:External sipper
End Method Modifications
<Current Wavelength> , 300.000
<SBW (nm)> , 2.00
<Energy> , 91.20
<Slit Height> , Full