File: UV-Vis data/2024_09/2024_09_11_imine polymer t=1hrs FeCl3 solution doping.csv
t=1hrs FeCl3 0uM,,t=1hrs FeCl3 5uM,,t=1hrs FeCl3 20uM,,t=1hrs FeCl3 50uM,,t=1hrs FeCl3 100uM,,
Wavelength (nm),Abs,Wavelength (nm),Abs,Wavelength (nm),Abs,Wavelength (nm),Abs,Wavelength (nm),Abs,
1400,0.00293277,1400,0.00399905,1400,0.00798524,1400,0.00449982,1400,0.00450199,
1398,0.00215384,1398,0.00316246,1398,0.00663233,1398,0.00352495,1398,0.0036691,
1396,0.00107552,1396,0.00185186,1396,0.00465137,1396,0.00225099,1396,0.00254491,
1394,-0.000211075,1394,0.00051878,1394,0.0021881,1394,0.000746908,1394,0.00125703,
1392,-0.000296086,1392,0.000124814,1392,0.00170542,1392,0.000600789,1392,0.000883013,
1390,-0.00148621,1390,-0.000855568,1390,2.30391e-05,1390,-0.000800639,1390,-0.000206159,
1388,-0.00117833,1388,-0.000892149,1388,0.000228685,1388,-0.000506655,1388,-0.00017278,
1386,-0.00175169,1386,-0.00136009,1386,-0.000602414,1386,-0.00111493,1386,-0.000633589,
1384,-0.00191846,1384,-0.00142403,1384,-0.000714693,1384,-0.001234764,1384,-0.000746582,
1382,-0.00167794,1382,-0.00134497,1382,-0.00064124,1382,-0.00106173,1382,-0.000584836,
1380,-0.00164535,1380,-0.00124013,1380,-0.000545282,1380,-0.000983329,1380,-0.000418375,
1378,-0.00197212,1378,-0.00155694,1378,-0.000950269,1378,-0.00136185,1378,-0.000858048,
1376,-0.00182939,1376,-0.00146278,1376,-0.000825702,1376,-0.00124793,1376,-0.0007502,
1374,-0.0018364,1374,-0.00143657,1374,-0.000863008,1374,-0.0012835,1374,-0.00074405,
1372,-0.00160517,1372,-0.00145664,1372,-0.00076002,1372,-0.00101293,1372,-0.000810871,
1370,-0.00200098,1370,-0.00156865,1370,-0.00111012,1370,-0.00138796,1370,-0.000856446,
1368,-0.00182392,1368,-0.00148249,1368,-0.000931206,1368,-0.00122785,1368,-0.00079759,
1366,-0.00184676,1366,-0.00153058,1366,-0.00100699,1366,-0.00129733,1366,-0.000888946,
1364,-0.00198923,1364,-0.00151355,1364,-0.00116563,1364,-0.00136649,1364,-0.000892252,
1362,-0.00188176,1362,-0.00161497,1362,-0.00103539,1362,-0.00123569,1362,-0.000929915,
1360,-0.00200386,1360,-0.00161079,1360,-0.00139725,1360,-0.0014278,1360,-0.000994332,
1358,-0.00199309,1358,-0.00172431,1358,-0.00139957,1358,-0.00145896,1358,-0.00116083,
1356,-0.0022837,1356,-0.0019296,1356,-0.00173544,1356,-0.00169347,1356,-0.00135008,
1354,-0.00207322,1354,-0.00172647,1354,-0.00163581,1354,-0.00151087,1354,-0.00119109,
1352,-0.00232191,1352,-0.00194439,1352,-0.00183665,1352,-0.00184367,1352,-0.00140551,
1350,-0.0022082,1350,-0.00194604,1350,-0.00184233,1350,-0.00172663,1350,-0.00143894,
1348,-0.00235394,1348,-0.00195294,1348,-0.00209058,1348,-0.00188362,1348,-0.00153321,
1346,-0.0024704,1346,-0.00206055,1346,-0.00214241,1346,-0.00197072,1346,-0.00159511,
1344,-0.00238525,1344,-0.00197093,1344,-0.00209079,1344,-0.00186831,1344,-0.00158412,
1342,-0.0024635,1342,-0.00199778,1342,-0.00216565,1342,-0.00195227,1342,-0.00159,
1340,-0.00245125,1340,-0.00206359,1340,-0.00215261,1340,-0.00192604,1340,-0.00158103,
1338,-0.0024545,1338,-0.00202922,1338,-0.00223529,1338,-0.00195341,1338,-0.00158258,
1336,-0.00243673,1336,-0.00209285,1336,-0.00221237,1336,-0.00196083,1336,-0.00154585,
1334,-0.00249156,1334,-0.00215318,1334,-0.00221603,1334,-0.00197737,1334,-0.0015669,
1332,-0.00249094,1332,-0.00212062,1332,-0.00224245,1332,-0.00200376,1332,-0.00153857,
1330,-0.00245352,1330,-0.00209373,1330,-0.0021896,1330,-0.00196882,1330,-0.00145644,
1328,-0.00246891,1328,-0.00208332,1328,-0.00220516,1328,-0.00192346,1328,-0.00147883,
1326,-0.00249892,1326,-0.00212459,1326,-0.00230029,1326,-0.00195387,1326,-0.00150427,
1324,-0.0024564,1324,-0.00209538,1324,-0.00221803,1324,-0.00191089,1324,-0.00150917,
1322,-0.00245501,1322,-0.00208744,1322,-0.00224569,1322,-0.00193058,1322,-0.00151195,
1320,-0.00248132,1320,-0.00210187,1320,-0.00226326,1320,-0.00194995,1320,-0.00153145,
1318,-0.00248626,1318,-0.00205143,1318,-0.00221963,1318,-0.00192542,1318,-0.00148956,
1316,-0.00245233,1316,-0.00200551,1316,-0.0022254,1316,-0.00193743,1316,-0.0015411,
1314,-0.00245094,1314,-0.00203313,1314,-0.00222252,1314,-0.00189666,1314,-0.00153285,
1312,-0.00250577,1312,-0.00208718,1312,-0.00224446,1312,-0.00195531,1312,-0.00159702,
1310,-0.00258328,1310,-0.00216364,1310,-0.00235338,1310,-0.00205024,1310,-0.00171703,
1308,-0.00253619,1308,-0.00204983,1308,-0.00218502,1308,-0.00196866,1308,-0.00151371,
1306,-0.00249877,1306,-0.00199046,1306,-0.00220433,1306,-0.00193465,1306,-0.00150777,
1304,-0.00250283,1304,-0.00205926,1304,-0.00224626,1304,-0.00197459,1304,-0.001478,
1302,-0.00250458,1302,-0.00201608,1302,-0.00215349,1302,-0.00190924,1302,-0.0014909,
1300,-0.002526,1300,-0.00205756,1300,-0.00220521,1300,-0.00193877,1300,-0.00153703,
1298,-0.00255935,1298,-0.00200077,1298,-0.00212536,1298,-0.0019331,1298,-0.00151061,
1296,-0.00258199,1296,-0.00207544,1296,-0.00218424,1296,-0.00199057,1296,-0.00155565,
1294,-0.00255703,1294,-0.00202076,1294,-0.00215658,1294,-0.00192991,1294,-0.00157933,
1292,-0.00254885,1292,-0.00204287,1292,-0.00215735,1292,-0.00196871,1292,-0.00157427,
1290,-0.00262666,1290,-0.00209409,1290,-0.00215952,1290,-0.00198526,1290,-0.00158144,
1288,-0.00261225,1288,-0.00211001,1288,-0.00209105,1288,-0.00197057,1288,-0.00157871,
1286,-0.00264385,1286,-0.00210537,1286,-0.00201216,1286,-0.00194387,1286,-0.00155622,
1284,-0.00260932,1284,-0.00219465,1284,-0.00200025,1284,-0.00196026,1284,-0.00153806,
1282,-0.00263809,1282,-0.00216549,1282,-0.00192681,1282,-0.00197356,1282,-0.0015377,
1280,-0.00259074,1280,-0.00216173,1280,-0.00188119,1280,-0.00196562,1280,-0.00146,
1278,-0.00261308,1278,-0.00215802,1278,-0.00184686,1278,-0.00191429,1278,-0.00147109,
1276,-0.00261606,1276,-0.00218445,1276,-0.00191939,1276,-0.00195145,1276,-0.00148213,
1274,-0.00262996,1274,-0.00217059,1274,-0.0018913,1274,-0.00195866,1274,-0.0014197,
1272,-0.00261133,1272,-0.00217677,1272,-0.00194135,1272,-0.00194336,1272,-0.00137547,
1270,-0.00264673,1270,-0.00217987,1270,-0.00196397,1270,-0.00199376,1270,-0.00142295,
1268,-0.00263963,1268,-0.00220907,1268,-0.00198861,1268,-0.00198546,1268,-0.00143962,
1266,-0.00269222,1266,-0.00220248,1266,-0.0020573,1266,-0.00199696,1266,-0.00140071,
1264,-0.00266917,1264,-0.00215833,1264,-0.00207198,1264,-0.00194037,1264,-0.00140251,
1262,-0.00268064,1262,-0.0021775,1262,-0.00205519,1262,-0.00196274,1262,-0.0013605,
1260,-0.00263788,1260,-0.0021319,1260,-0.00210347,1260,-0.00193594,1260,-0.00140633,
1258,-0.00266078,1258,-0.0021418,1258,-0.00214983,1258,-0.00192413,1258,-0.00136272,
1256,-0.00273183,1256,-0.00218218,1256,-0.00217188,1256,-0.00198464,1256,-0.00134363,
1254,-0.00267447,1254,-0.00215339,1254,-0.00215766,1254,-0.00193784,1254,-0.00132314,
1252,-0.00266119,1252,-0.00216467,1252,-0.00214499,1252,-0.0019213,1252,-0.00126037,
1250,-0.00267498,1250,-0.00215741,1250,-0.00214314,1250,-0.00192367,1250,-0.0012469,
1248,-0.00267483,1248,-0.00215153,1248,-0.00222684,1248,-0.00199289,1248,-0.00128618,
1246,-0.00272093,1246,-0.00219048,1246,-0.00224023,1246,-0.00195578,1246,-0.00121608,
1244,-0.00271249,1244,-0.00217549,1244,-0.00218811,1244,-0.00201324,1244,-0.00123538,
1242,-0.00263181,1242,-0.00216864,1242,-0.00222715,1242,-0.00194954,1242,-0.00123642,
1240,-0.00265502,1240,-0.00214973,1240,-0.0021674,1240,-0.00197835,1240,-0.0012295,
1238,-0.00270534,1238,-0.00220593,1238,-0.00221247,1238,-0.00198722,1238,-0.00126156,
1236,-0.0026685,1236,-0.00216694,1236,-0.00225553,1236,-0.00198139,1236,-0.00122521,
1234,-0.00265368,1234,-0.00217997,1234,-0.00221252,1234,-0.00191826,1234,-0.00118804,
1232,-0.0026881,1232,-0.00216338,1232,-0.00226563,1232,-0.00194258,1232,-0.00123838,
1230,-0.00266613,1230,-0.00216317,1230,-0.00221051,1230,-0.00193547,1230,-0.00120911,
1228,-0.00261663,1228,-0.00216477,1228,-0.00216317,1228,-0.00188702,1228,-0.00119615,
1226,-0.00264714,1226,-0.00218831,1226,-0.00221567,1226,-0.00191908,1226,-0.00122588,
1224,-0.00261956,1224,-0.00213984,1224,-0.00222365,1224,-0.0018798,1224,-0.0012106,
1222,-0.00258791,1222,-0.00213901,1222,-0.00219213,1222,-0.00188166,1222,-0.0012376,
1220,-0.00263912,1220,-0.00215874,1220,-0.00223416,1220,-0.0018948,1220,-0.0012756,
1218,-0.00265656,1218,-0.00220768,1218,-0.00228288,1218,-0.00192315,1218,-0.00140143,
1216,-0.0026528,1216,-0.0021743,1216,-0.0022682,1216,-0.00185449,1216,-0.00144416,
1214,-0.00258904,1214,-0.00212953,1214,-0.0022186,1214,-0.00179283,1214,-0.00124132,
1212,-0.00265769,1212,-0.00219125,1212,-0.00218187,1212,-0.00182237,1212,-0.0012518,
1210,-0.00260196,1210,-0.00219321,1210,-0.00221046,1210,-0.00176128,1210,-0.0012615,
1208,-0.00259645,1208,-0.00222355,1208,-0.00218115,1208,-0.00177876,1208,-0.00126971,
1206,-0.00258287,1206,-0.00224899,1206,-0.00218136,1206,-0.00176705,1206,-0.00131245,
1204,-0.00258534,1204,-0.00223029,1204,-0.00220897,1204,-0.00179572,1204,-0.00124065,
1202,-0.00264236,1202,-0.00223034,1202,-0.00222009,1202,-0.00173385,1202,-0.00126563,
1200,-0.0025613,1200,-0.00223792,1200,-0.00216421,1200,-0.00177829,1200,-0.00117384,
1198,-0.0025315,1198,-0.00222854,1198,-0.00210218,1198,-0.00176458,1198,-0.00103209,
1196,-0.00255086,1196,-0.0022152,1196,-0.00207605,1196,-0.00177649,1196,-0.000990922,
1194,-0.00250602,1194,-0.00225507,1194,-0.00210496,1194,-0.00174478,1194,-0.00102434,
1192,-0.00255842,1192,-0.00225836,1192,-0.00207425,1192,-0.00175901,1192,-0.00101876,
1190,-0.00251225,1190,-0.00213757,1190,-0.00205833,1190,-0.00165773,1190,-0.000911678,
1188,-0.00255086,1188,-0.00227551,1188,-0.0021282,1188,-0.00170543,1188,-0.000974238,
1186,-0.00249166,1186,-0.00223519,1186,-0.00208492,1186,-0.00164138,1186,-0.000913435,
1184,-0.00249913,1184,-0.00220469,1184,-0.00204303,1184,-0.00160496,1184,-0.00089902,
1182,-0.00247756,1182,-0.00222272,1182,-0.00201943,1182,-0.00156205,1182,-0.000884967,
1180,-0.00250355,1180,-0.00218929,1180,-0.00202685,1180,-0.00156483,1180,-0.000864869,
1178,-0.00247751,1178,-0.00216323,1178,-0.002032,1178,-0.00148373,1178,-0.000889721,
1176,-0.00246803,1176,-0.00222051,1176,-0.00204766,1176,-0.00154786,1176,-0.000944741,
1174,-0.00248446,1174,-0.00216786,1174,-0.00202561,1174,-0.0015037,1174,-0.000878716,
1172,-0.00246706,1172,-0.00217023,1172,-0.00203324,1172,-0.00149137,1172,-0.000894009,
1170,-0.00248816,1170,-0.00219068,1170,-0.00202906,1170,-0.00144607,1170,-0.000842909,
1168,-0.00244482,1168,-0.00214087,1168,-0.00200175,1168,-0.00140334,1168,-0.000836708,
1166,-0.00245161,1166,-0.00215251,1166,-0.00194269,1166,-0.00133207,1166,-0.000722291,
1164,-0.00248698,1164,-0.00214659,1164,-0.00196361,1164,-0.00135632,1164,-0.000745239,
1162,-0.0024617,1162,-0.00212835,1162,-0.00198665,1162,-0.00131911,1162,-0.000807512,
1160,-0.00246618,1160,-0.00209646,1160,-0.00194547,1160,-0.00131054,1160,-0.000868124,
1158,-0.00251529,1158,-0.00213582,1158,-0.00205256,1158,-0.00151716,1158,-0.00130574,
1156,-0.00282716,1156,-0.00244904,1156,-0.00259939,1156,-0.00161538,1156,-0.00202056,
1154,-0.00233273,1154,-0.00169414,1154,-0.0018731,1154,-0.00114467,1154,-0.00176097,
1152,-0.00210305,1152,-0.00177257,1152,-0.00167954,1152,-0.000918704,1152,-0.000114142,
1150,-0.00189929,1150,-0.00136107,1150,-0.0011187,1150,-0.000480643,1150,0.000277327,
1148,-0.00192547,1148,-0.00141345,1148,-0.00115267,1148,-0.000638241,1148,-0.000168951,
1146,-0.00213525,1146,-0.0016028,1146,-0.00136432,1146,-0.000657265,1146,-0.000550504,
1144,-0.00222803,1144,-0.00181975,1144,-0.00159346,1144,-0.000781415,1144,-0.000454578,
1142,-0.00229323,1142,-0.00179,1142,-0.00166866,1142,-0.000662176,1142,-0.000418426,
1140,-0.00236208,1140,-0.00184465,1140,-0.00165701,1140,-0.000692725,1140,-0.000359045,
1138,-0.00237356,1138,-0.00181639,1138,-0.00167867,1138,-0.000584061,1138,-0.000249469,
1136,-0.0024269,1136,-0.0018514,1136,-0.00170564,1136,-0.000629246,1136,-0.000145921,
1134,-0.00240945,1134,-0.00180794,1134,-0.00167547,1134,-0.000581475,1134,-5.86019e-05,
1132,-0.002359865,1132,-0.0018066,1132,-0.0016142,1132,-0.000516894,1132,3.57228e-06,
1130,-0.00238355,1130,-0.00176556,1130,-0.00162137,1130,-0.000506448,1130,1.41599e-05,
1128,-0.0024704,1128,-0.00186449,1128,-0.00171941,1128,-0.000628729,1128,-7.59946e-05,
1126,-0.002439,1126,-0.00182047,1126,-0.00168228,1126,-0.000627437,1126,-3.09585e-05,
1124,-0.00243025,1124,-0.00185908,1124,-0.00166768,1124,-0.000631624,1124,-3.93465e-06,
1122,-0.00248379,1122,-0.0018732,1122,-0.00167237,1122,-0.000737486,1122,-3.65494e-05,
1120,-0.00247864,1120,-0.00183794,1120,-0.00166546,1120,-0.000772578,1120,5.69492e-07,
1118,-0.00245408,1118,-0.00182624,1118,-0.0016158,1118,-0.000875771,1118,-6.16082e-06,
1116,-0.00248538,1116,-0.00177896,1116,-0.00162673,1116,-0.000875047,1116,1.76028e-05,
1114,-0.00249691,1114,-0.0018217,1114,-0.00167439,1114,-0.000966696,1114,-2.26755e-05,
1112,-0.00253845,1112,-0.00183696,1112,-0.00173106,1112,-0.00097961,1112,-7.70298e-05,
1110,-0.00253794,1110,-0.00183537,1110,-0.00169754,1110,-0.0010355,1110,-7.05077e-05,
1108,-0.0025647,1108,-0.00180258,1108,-0.00175148,1108,-0.00105745,1108,-0.000135621,
1106,-0.00258251,1106,-0.00178133,1106,-0.00171662,1106,-0.00111023,1106,-9.51464e-05,
1104,-0.0025418,1104,-0.0018347,1104,-0.00177489,1104,-0.0011346,1104,-0.000147991,
1102,-0.00253336,1102,-0.00194805,1102,-0.00189898,1102,-0.00113899,1102,-9.16267e-05,
1100,-0.00256964,1100,-0.00182748,1100,-0.00178443,1100,-0.00111539,1100,-0.000130497,
1098,-0.0025506,1098,-0.00185655,1098,-0.00181985,1098,-0.00119986,1098,-0.000166104,
1096,-0.00259265,1096,-0.00183042,1096,-0.00179196,1096,-0.00120911,1096,-0.000204968,
1094,-0.00250294,1094,-0.00178577,1094,-0.00174333,1094,-0.00117534,1094,-0.000107983,
1092,-0.00251411,1092,-0.00182258,1092,-0.00174906,1092,-0.00117508,1092,-0.000167812,
1090,-0.00257196,1090,-0.00180041,1090,-0.00179288,1090,-0.00116765,1090,-0.000167036,
1088,-0.00253336,1088,-0.00180784,1088,-0.00179665,1088,-0.00120327,1088,-0.000124752,
1086,-0.00254926,1086,-0.00178943,1086,-0.00176257,1086,-0.00117441,1086,-0.000156944,
1084,-0.00248893,1084,-0.00174844,1084,-0.00172209,1084,-0.00117271,1084,-0.000139089,
1082,-0.00246881,1082,-0.00175622,1082,-0.00173601,1082,-0.00113104,1082,-0.000158859,
1080,-0.00254185,1080,-0.00178835,1080,-0.0017868,1080,-0.00120973,1080,-0.000229341,
1078,-0.00248713,1078,-0.00176386,1078,-0.0017506,1078,-0.00112882,1078,-0.000261887,
1076,-0.00255729,1076,-0.00184959,1076,-0.0018101,1076,-0.00120601,1076,-0.000369184,
1074,-0.00256295,1074,-0.00185068,1074,-0.00181433,1074,-0.00117493,1074,-0.000376995,
1072,-0.0025157,1072,-0.00175561,1072,-0.00180407,1072,-0.00111441,1072,-0.000349061,
1070,-0.00247921,1070,-0.00173085,1070,-0.00176365,1070,-0.00105425,1070,-0.000380978,
1068,-0.00246546,1068,-0.00176855,1068,-0.00176788,1068,-0.00106979,1068,-0.000360132,
1066,-0.00252219,1066,-0.0017967,1066,-0.00177489,1066,-0.00104433,1066,-0.000354027,
1064,-0.00244961,1064,-0.00176726,1064,-0.00178046,1064,-0.00102496,1064,-0.000275805,
1062,-0.00245259,1062,-0.00171069,1062,-0.00183227,1062,-0.000950786,1062,-0.000190531,
1060,-0.00242845,1060,-0.00175375,1060,-0.00173776,1060,-0.000876701,1060,-0.000145403,
1058,-0.00241573,1058,-0.00173452,1058,-0.00178206,1058,-0.000927745,1058,-9.0695e-05,
1056,-0.00238576,1056,-0.00169089,1056,-0.00172585,1056,-0.000912505,1056,-6.21259e-06,
1054,-0.00239905,1054,-0.00172704,1054,-0.00177066,1054,-0.000891529,1054,-6.84889e-05,
1052,-0.002359865,1052,-0.0016815,1052,-0.00176834,1052,-0.000922424,1052,1.0018e-05,
1050,-0.00235085,1050,-0.00160269,1050,-0.00171884,1050,-0.000907028,1050,0.000107466,
1048,-0.0024774,1048,-0.00173116,1048,-0.00181387,1048,-0.000952594,1048,4.42931e-05,
1046,-0.00241594,1046,-0.00168511,1046,-0.00177159,1046,-0.000912195,1046,1.61531e-05,
1044,-0.00240399,1044,-0.00170904,1044,-0.00177515,1044,-0.000900312,1044,-0.000117506,
1042,-0.00243478,1042,-0.001752,1042,-0.00179752,1042,-0.000905788,1042,-0.000202795,
1040,-0.00239689,1040,-0.00169646,1040,-0.00180283,1040,-0.00085221,1040,-0.000283825,
1038,-0.00237989,1038,-0.00169759,1038,-0.00172384,1038,-0.000860838,1038,-0.000297535,
1036,-0.00241269,1036,-0.00167831,1036,-0.00176695,1036,-0.000811905,1036,-0.000261835,
1034,-0.00241604,1034,-0.00170987,1034,-0.00173565,1034,-0.000793818,1034,-0.000242329,
1032,-0.00240456,1032,-0.00161946,1032,-0.00167485,1032,-0.000728234,1032,-0.00026732,
1030,-0.00233618,1030,-0.00164494,1030,-0.00168181,1030,-0.00075082,1030,-0.000301933,
1028,-0.00241763,1028,-0.00168408,1028,-0.00169177,1028,-0.000731387,1028,-0.000326817,
1026,-0.0023627,1026,-0.00165185,1026,-0.00168857,1026,-0.000705596,1026,-0.000312124,
1024,-0.00233896,1024,-0.00162756,1024,-0.00166691,1024,-0.000675822,1024,-0.000363856,
1022,-0.00234751,1022,-0.00166665,1022,-0.00164195,1022,-0.000711953,1022,-0.000344095,
1020,-0.00238643,1020,-0.00165566,1020,-0.00166969,1020,-0.000679234,1020,-0.000410461,
1018,-0.00235173,1018,-0.00164757,1018,-0.00169084,1018,-0.000681664,1018,-0.000428046,
1016,-0.00235235,1016,-0.00165169,1016,-0.00166093,1016,-0.000649976,1016,-0.000363908,
1014,-0.00231826,1014,-0.00170878,1014,-0.00163472,1014,-0.000632038,1014,-0.000318126,
1012,-0.0023318,1012,-0.00166882,1012,-0.00162812,1012,-0.000630073,1012,-0.000340991,
1010,-0.00232135,1010,-0.00161616,1010,-0.00161069,1010,-0.000573099,1010,-0.000235085,
1008,-0.00229498,1008,-0.00163632,1008,-0.00159702,1008,-0.000544972,1008,-0.000200259,
1006,-0.00228623,1006,-0.00165463,1006,-0.00157329,1006,-0.000531424,1006,-0.000196948,
1004,-0.00229714,1004,-0.0016536,1004,-0.00154198,1004,-0.000502984,1004,-0.000180439,
1002,-0.00229472,1002,-0.001652,1002,-0.00160233,1002,-0.000440718,1002,-0.000159739,
1000,-0.00226666,1000,-0.00170523,1000,-0.00159846,1000,-0.000484625,1000,-0.000133862,
998,-0.00227304,998,-0.00162322,998,-0.00150385,998,-0.000432288,998,-7.13876e-05,
996,-0.00227072,996,-0.00161714,996,-0.00143033,996,-0.000348389,996,-7.29405e-05,
994,-0.00224472,994,-0.00167083,994,-0.00147393,994,-0.000386047,994,9.13784e-06,
992,-0.00231826,992,-0.00172663,992,-0.00152532,992,-0.000458199,992,-8.7641e-05,
990,-0.00226465,990,-0.00172632,990,-0.00147935,990,-0.000414495,990,-8.28343e-06,
988,-0.00227448,988,-0.00168439,988,-0.00141283,988,-0.000340267,988,7.1477e-05,
986,-0.0022118,986,-0.00169089,986,-0.00135292,986,-0.000331369,986,5.949e-05,
984,-0.00220464,984,-0.00163194,984,-0.00128484,984,-0.000230376,984,0.000181421,
982,-0.00220748,982,-0.00167361,982,-0.00131958,982,-0.000234205,982,0.000224412,
980,-0.00220722,980,-0.00160821,980,-0.00124075,980,-0.000197362,980,0.000280798,
978,-0.00212505,978,-0.00166175,978,-0.00124943,978,-0.000132619,978,0.000351337,
976,-0.00210913,976,-0.00163395,976,-0.00118887,976,-6.74018e-05,976,0.000418545,
974,-0.00215679,974,-0.00163911,974,-0.00119052,974,-1.09755e-05,974,0.000453163,
972,-0.00218893,972,-0.00171446,972,-0.00121272,972,-9.00822e-06,972,0.000432148,
970,-0.00219841,970,-0.00167181,970,-0.00121711,970,-4.14174e-06,970,0.000439481,
968,-0.00223225,968,-0.00174916,968,-0.00124137,968,5.4571e-05,968,0.00045363,
966,-0.00218816,966,-0.00177494,966,-0.00117973,966,9.62547e-05,966,0.000516473,
964,-0.00221144,964,-0.00175952,964,-0.00113868,964,0.000168136,964,0.000624041,
962,-0.00214432,962,-0.00165056,962,-0.00100926,962,0.000291885,962,0.000763375,
960,-0.00207332,960,-0.00154399,960,-0.000839963,960,0.000397765,960,0.000885062,
958,-0.00201046,958,-0.00148652,958,-0.000701306,958,0.000487499,958,0.00101747,
956,-0.00196026,956,-0.00148951,956,-0.000643979,956,0.00052005,956,0.0010195,
954,-0.00196031,954,-0.00155792,954,-0.000636173,954,0.000573649,954,0.00108133,
952,-0.00200077,952,-0.00158866,952,-0.000670705,952,0.00051256,952,0.00105406,
950,-0.00199144,950,-0.00159619,950,-0.000676598,950,0.000475371,950,0.00108909,
948,-0.00206261,948,-0.00164942,948,-0.000659074,948,0.000508335,948,0.00113204,
946,-0.00200541,946,-0.00162611,946,-0.000598175,946,0.000575982,946,0.00117116,
944,-0.00198892,944,-0.00161817,944,-0.000556399,944,0.000614139,944,0.00125552,
942,-0.00199,942,-0.00160656,942,-0.00049383,942,0.000613983,942,0.00128969,
940,-0.00202216,940,-0.00157102,940,-0.000467197,940,0.000701973,940,0.00136873,
938,-0.00199051,938,-0.00160785,938,-0.000396444,938,0.000725127,938,0.00139771,
936,-0.00198047,936,-0.00154322,936,-0.000291482,936,0.000777793,936,0.00150516,
934,-0.00192264,934,-0.00157474,934,-0.000193584,934,0.000879693,934,0.00161879,
932,-0.00193681,932,-0.00157154,932,-0.000136139,932,0.000933389,932,0.00167876,
930,-0.00191475,930,-0.00155462,930,-5.10441e-05,930,0.000996873,930,0.0017784,
928,-0.00192877,928,-0.00159815,928,4.50957e-05,928,0.00107007,928,0.00179938,
926,-0.00191006,926,-0.00156065,926,0.000146151,926,0.00113106,926,0.00189229,
924,-0.00188362,924,-0.00153599,924,0.000269168,924,0.00124734,924,0.00207978,
922,-0.00185057,922,-0.00147269,922,0.000352658,922,0.00134608,922,0.00215936,
920,-0.00186073,920,-0.00148239,920,0.000492268,920,0.00147419,920,0.00228401,
918,-0.00186836,918,-0.0015233,918,0.000570202,918,0.00152599,918,0.00232266,
916,-0.00183944,916,-0.00145953,916,0.000744523,916,0.00165802,916,0.00249188,
914,-0.00179747,914,-0.00147558,914,0.000835029,914,0.00173289,914,0.00262171,
912,-0.00178561,912,-0.00141448,912,0.000936865,912,0.00186252,912,0.00274261,
910,-0.00180412,910,-0.0014151,910,0.00103138,910,0.00198837,910,0.00285548,
908,-0.00177896,908,-0.00137114,908,0.00117396,908,0.00213597,908,0.0029839,
906,-0.00180758,906,-0.00136458,906,0.00120545,906,0.00218993,906,0.0030559,
904,-0.00178226,904,-0.00136148,904,0.00135868,904,0.00235178,904,0.00324392,
902,-0.00180619,902,-0.00135648,902,0.0014403,902,0.00251206,902,0.00338478,
900,-0.00183253,900,-0.00135761,900,0.00158509,900,0.00261293,900,0.00350582,
898,0.000788762,898,0.00226637,898,0.00430825,898,0.00712858,898,0.00622,
896,-0.00156648,896,-0.00048416,896,0.00337755,896,0.00596229,896,0.00606961,
894,-0.00206482,894,-0.000689779,894,0.000851395,894,0.00607557,894,0.00418084,
892,0.000814307,892,-0.000945155,892,0.00448891,892,0.00561577,892,0.0071085,
890,0.00072938,890,1.99327e-05,890,0.00465885,890,0.0048889,890,0.00621338,
888,0.0018599,888,0.000544075,888,0.00560906,888,0.0070619,888,0.00756298,
886,0.000279244,886,0.00016376,886,0.00402154,886,0.005834,886,0.00799373,
884,0.000224153,884,0.00314801,884,0.00692832,884,0.006743,884,0.00745447,
882,0.000642473,882,0.000695102,882,0.00391229,882,0.00703917,882,0.00732816,
880,-0.000225615,880,0.00178064,880,0.00535307,880,0.00591633,880,0.00849454,
878,0.00137758,878,0.00241675,878,0.0066122,878,0.00816135,878,0.00869811,
876,0.000544127,876,0.00117508,876,0.00706027,876,0.00841148,876,0.00973146,
874,0.000708507,874,0.00122224,874,0.00611124,874,0.00763195,874,0.00860234,
872,0.000264661,872,0.00157005,872,0.00623187,872,0.00774053,872,0.00827389,
870,0.000382945,870,0.000745379,870,0.0051734,870,0.00794024,870,0.00744797,
868,0.00127045,868,0.00256728,868,0.00784191,868,0.0101319,868,0.00985703,
866,0.000648073,866,0.000869266,866,0.0069043,866,0.00852815,866,0.0093414,
864,0.000987351,864,0.00192339,864,0.00819124,864,0.00942448,864,0.0101594,
862,0.000987584,862,0.00106044,862,0.00788121,862,0.00952695,862,0.0106176,
860,0.00088789,860,0.00163456,860,0.00811588,860,0.00987115,860,0.0103378,
858,0.00102663,858,0.00144762,858,0.00808334,858,0.0103301,858,0.0106867,
856,0.000978841,856,0.0024388,856,0.00876087,856,0.0109236,856,0.0114986,
854,0.000944985,854,0.00165439,854,0.0089063,854,0.0108562,854,0.0114969,
852,0.000975365,852,0.00204475,852,0.00931643,852,0.0112857,852,0.011912,
850,0.000978634,850,0.00216113,850,0.00973138,850,0.0114678,850,0.0123098,
848,0.00136657,848,0.00241823,848,0.00998217,848,0.0120375,848,0.0131817,
846,0.00132464,846,0.00242297,846,0.0104474,846,0.012339,846,0.0134696,
844,0.00139059,844,0.00235423,844,0.0108244,844,0.0129113,844,0.0136767,
842,0.00138753,842,0.00237747,842,0.0111876,842,0.0134339,842,0.0142536,
840,0.00139942,840,0.00251151,840,0.0114335,840,0.013615,840,0.0146949,
838,0.00142827,838,0.00256327,838,0.0117994,838,0.014219,838,0.0153169,
836,0.00134276,836,0.00239205,836,0.0122225,836,0.0144784,836,0.0155423,
834,0.00142373,834,0.00279863,834,0.0127076,834,0.0152573,834,0.016327,
832,0.00120981,832,0.00249636,832,0.01262,832,0.0151609,832,0.0163072,
830,0.00140202,830,0.00261559,830,0.0132201,830,0.0156967,830,0.0169331,
828,0.00122969,828,0.0027713,828,0.0134832,828,0.016164,828,0.0174393,
826,0.00124799,826,0.00269244,826,0.0139953,826,0.0168036,826,0.0180967,
824,0.00116485,824,0.00257728,824,0.014153,824,0.0167404,824,0.018396,
822,0.00113422,822,0.00272438,822,0.0147022,822,0.0178276,822,0.0192098,
820,0.00123447,820,0.00312434,820,0.0151829,820,0.0183544,820,0.0197458,
818,0.00119639,818,0.00297116,818,0.0155028,818,0.0188574,818,0.0202809,
816,0.000945686,816,0.00287231,816,0.0157393,816,0.0192295,816,0.0205941,
814,0.000894141,814,0.00298695,814,0.016364,814,0.0198525,814,0.0214847,
812,0.00108216,812,0.00328278,812,0.0168561,812,0.0204009,812,0.0222389,
810,0.00125646,810,0.00314785,810,0.0172723,810,0.0211121,810,0.0229362,
808,0.00103239,808,0.00333881,808,0.0179288,808,0.0219322,808,0.0236502,
806,0.00102365,806,0.00338937,806,0.0184355,806,0.0226476,806,0.0246823,
804,0.00103792,804,0.00358067,804,0.0191518,804,0.0235441,804,0.0256028,
802,0.000889939,802,0.00349238,802,0.0193761,802,0.0242882,802,0.0263319,
800,0.000943403,800,0.00349055,800,0.0199993,800,0.0250434,800,0.0273396,
798,0.000963353,798,0.00348857,798,0.0206741,798,0.0262668,798,0.0284545,
796,0.000883117,796,0.00390736,796,0.0211671,796,0.0272828,796,0.0292626,
794,0.000909316,794,0.00389325,794,0.0220576,794,0.0282583,794,0.0303377,
792,0.00108811,792,0.00393708,792,0.0226286,792,0.0295136,792,0.0314986,
790,0.0010024,790,0.0041821,790,0.0231511,790,0.0304255,790,0.0327149,
788,0.00084709,788,0.00414156,788,0.0238706,788,0.0315872,788,0.0339086,
786,0.000934556,786,0.00417378,786,0.0246627,786,0.0326479,786,0.0352183,
784,0.00106413,784,0.00466429,784,0.0256518,784,0.0339496,784,0.03664352,
782,0.00117331,782,0.00480441,782,0.0263048,782,0.0353545,782,0.0381122,
780,0.00106107,780,0.00491678,780,0.02719,780,0.0367295,780,0.0396744,
778,0.00107853,778,0.00500861,778,0.0279886,778,0.0380102,778,0.0412225,
776,0.00108017,776,0.00519701,776,0.028743,776,0.0391814,776,0.0427366,
774,0.00102845,774,0.0053504,774,0.0298506,774,0.0408132,774,0.0444927,
772,0.000927578,772,0.00538782,772,0.0306989,772,0.0422133,772,0.046168,
770,0.00105902,770,0.00564241,770,0.0315888,770,0.0438253,770,0.0480998,
768,0.00101436,768,0.00594549,768,0.0327993,768,0.045488,768,0.0501088,
766,0.00114494,766,0.00606956,766,0.0337349,766,0.0471565,766,0.0521563,
764,0.00103315,764,0.00628436,764,0.0348371,764,0.0490626,764,0.0542746,
762,0.001058,762,0.00657033,762,0.0360293,762,0.0508386,762,0.0564466,
760,0.00113443,760,0.00684721,760,0.0372262,760,0.0529335,760,0.0588656,
758,0.00101057,758,0.00693902,758,0.038227,758,0.0548791,758,0.0611458,
756,0.00107459,756,0.00723329,756,0.0396592,756,0.0570879,756,0.063542,
754,0.00109405,754,0.00744286,754,0.0409193,754,0.0593429,754,0.0661157,
752,0.00107368,752,0.00770801,752,0.0423128,752,0.0616341,752,0.068831,
750,0.00115732,750,0.00795002,750,0.0437481,750,0.0641118,750,0.0714818,
748,0.0011975,748,0.00826505,748,0.0451182,748,0.0667613,748,0.0742782,
746,0.00123042,746,0.0086792,746,0.046849,746,0.0694967,746,0.077255,
744,0.00114697,744,0.00878847,744,0.0483206,744,0.0723241,744,0.0801973,
742,0.00126007,742,0.00924334,742,0.0501459,742,0.0755581,742,0.0834951,
740,0.00121809,740,0.00958048,740,0.051735,740,0.0786166,740,0.086593,
738,0.00135037,738,0.0100188,738,0.0536893,738,0.0819895,738,0.0900138,
736,0.00127974,736,0.01023,736,0.0556006,736,0.0853045,736,0.0936775,
734,0.0013,734,0.0107954,734,0.057566,734,0.0891064,734,0.0971079,
732,0.00137184,732,0.0110477,732,0.0596703,732,0.0928597,732,0.101062,
730,0.0012042,730,0.0113821,730,0.0617024,730,0.096798,730,0.104978,
728,0.00129171,728,0.011925,728,0.0639652,728,0.10115,728,0.109049,
726,0.00141394,726,0.0124426,726,0.0662689,726,0.105604,726,0.11352,
724,0.00129496,724,0.01281,724,0.0686855,724,0.110082,724,0.118062,
722,0.00139277,722,0.0133149,722,0.0712297,722,0.114916,722,0.122808,
720,0.00131282,720,0.0137871,720,0.0737904,720,0.119898,720,0.127826,
718,0.00137735,718,0.0144038,718,0.0764962,718,0.125177,718,0.133044,
716,0.00140093,716,0.0149344,716,0.0792959,716,0.130818,716,0.138424,
714,0.00152526,714,0.0155062,714,0.082289,714,0.136693,714,0.144407,
712,0.00151687,712,0.0160138,712,0.0853319,712,0.142637,712,0.150322,
710,0.00148165,710,0.0165827,710,0.0882783,710,0.148838,710,0.156414,
708,0.00146931,708,0.0171353,708,0.0914975,708,0.155146,708,0.162931,
706,0.0015328,706,0.017823,706,0.0947023,706,0.161787,706,0.169722,
704,0.00151243,704,0.0184608,704,0.0980409,704,0.168679,704,0.176703,
702,0.00154906,702,0.019095,702,0.101532,702,0.175777,702,0.183981,
700,0.00164924,700,0.0198599,700,0.105129,700,0.183389,700,0.191639,
698,0.00166489,698,0.020494,698,0.10874,698,0.190865,698,0.199297,
696,0.00166715,696,0.0212503,696,0.112376,696,0.198659,696,0.207332,
694,0.00178129,694,0.0220735,694,0.116384,694,0.206865,694,0.215654,
692,0.00183039,692,0.0227701,692,0.120328,692,0.215084,692,0.224178,
690,0.00177679,690,0.0235091,690,0.124225,690,0.223484,690,0.232712,
688,0.00186317,688,0.0243238,688,0.128444,688,0.232253,688,0.241692,
686,0.00195383,686,0.025165,686,0.132619,686,0.241022,686,0.250834,
684,0.00201643,684,0.0260432,684,0.136792,684,0.250094,684,0.260147,
682,0.00204686,682,0.0269114,682,0.141134,682,0.259232,682,0.269649,
680,0.00210231,680,0.0277641,680,0.145533,680,0.268542,680,0.279241,
678,0.0020904,678,0.028657,678,0.149962,678,0.278248,678,0.289228,
676,0.00224485,676,0.0296497,676,0.154502,676,0.287907,676,0.299301,
674,0.00220668,674,0.0304869,674,0.159124,674,0.297879,674,0.309687,
672,0.00228412,672,0.031438,672,0.163709,672,0.308112,672,0.320056,
670,0.00230762,670,0.0323924,670,0.168383,670,0.318204,670,0.330435,
668,0.00223137,668,0.0331936,668,0.172992,668,0.328379,668,0.340993,
666,0.00222544,666,0.0340805,666,0.177678,666,0.338642,666,0.35161,
664,0.00218678,664,0.0349862,664,0.182433,664,0.349026,664,0.362393,
662,0.00217299,662,0.0359275,662,0.187129,662,0.35953,662,0.373373,
660,0.00211956,660,0.0367348,660,0.191942,660,0.370066,660,0.384223,
658,0.00213475,658,0.0377736,658,0.19678,658,0.380807,658,0.395405,
656,0.00213373,656,0.0386723,656,0.201651,656,0.391586,656,0.406587,
654,0.00220072,654,0.039713,654,0.206575,654,0.402367,654,0.417794,
652,0.00217887,652,0.0406359,652,0.211407,652,0.413131,652,0.428895,
650,0.00216144,650,0.0415738,650,0.216456,650,0.424019,650,0.440184,
648,0.00218319,648,0.0426744,648,0.22136,648,0.434902,648,0.451348,
646,0.00224311,646,0.0436969,646,0.226341,646,0.445718,646,0.462584,
644,0.00224147,644,0.044699,644,0.231253,644,0.456577,644,0.473806,
642,0.00235358,642,0.0457529,642,0.236268,642,0.467455,642,0.485021,
640,0.002360421,640,0.0467539,640,0.241115,640,0.478287,640,0.496131,
638,0.00234655,638,0.0477372,638,0.246058,638,0.489122,638,0.507272,
636,0.00233866,636,0.0487268,636,0.251102,636,0.500049,636,0.518364,
634,0.00245197,634,0.0497243,634,0.256052,634,0.510913,634,0.529397,
632,0.00244392,632,0.0508265,632,0.261008,632,0.521834,632,0.540519,
630,0.00248724,630,0.0516655,630,0.265899,630,0.532652,630,0.551392,
628,0.0025553,628,0.0527876,628,0.270762,628,0.543536,628,0.562345,
626,0.00249594,626,0.0538382,626,0.275608,626,0.554171,626,0.573164,
624,0.00267598,624,0.0547262,624,0.280386,624,0.565012,624,0.583931,
622,0.00264392,622,0.0557372,622,0.285183,622,0.575509,622,0.594569,
620,0.00278286,620,0.0567607,620,0.289854,620,0.586108,620,0.605297,
618,0.00282715,618,0.0577099,618,0.29446,618,0.596655,618,0.615991,
616,0.00293222,616,0.0586984,616,0.299089,616,0.606979,616,0.62655,
614,0.00301023,614,0.0596649,614,0.303678,614,0.617349,614,0.637087,
612,0.003065,612,0.0605024,612,0.308455,612,0.627619,612,0.647548,
610,0.00314556,610,0.0614713,610,0.312792,610,0.637486,610,0.657611,
608,0.00325967,608,0.0622763,608,0.317189,608,0.647439,608,0.667812,
606,0.00333036,606,0.0631697,606,0.321278,606,0.657041,606,0.677664,
604,0.0033931,604,0.0640609,604,0.325245,604,0.666354,604,0.687295,
602,0.00376821,602,0.0651243,602,0.329269,602,0.675776,602,0.696929,
600,0.0038054,600,0.0658481,600,0.332959,600,0.684503,600,0.706181,
598,0.00402152,598,0.066713,598,0.33662,598,0.693248,598,0.715257,
596,0.00419041,596,0.0676019,596,0.340092,596,0.701617,596,0.723995,
594,0.00438426,594,0.068441,594,0.343599,594,0.7098,594,0.732538,
592,0.00463318,592,0.0693995,592,0.346887,592,0.717643,592,0.740741,
590,0.00500696,590,0.070283,590,0.349958,590,0.725077,590,0.74851,
588,0.00530524,588,0.0712267,588,0.352958,588,0.732024,588,0.75576,
586,0.00582067,586,0.0722691,586,0.355884,586,0.7389,586,0.762839,
584,0.00634065,584,0.0732916,584,0.358588,584,0.745062,584,0.769184,
582,0.00695007,582,0.0743161,582,0.361235,582,0.750922,582,0.775209,
580,0.00766185,580,0.0754973,580,0.363561,580,0.756198,580,0.780538,
578,0.00870889,578,0.0767522,578,0.365932,578,0.76115,578,0.785671,
576,0.00965332,576,0.0780985,576,0.368156,576,0.765578,576,0.790056,
574,0.0110292,574,0.0796128,574,0.370139,574,0.769598,574,0.794044,
572,0.0126654,572,0.0812106,572,0.372179,572,0.773209,572,0.79743,
570,0.0144498,570,0.0830367,570,0.373981,570,0.776115,570,0.800248,
568,0.0167505,568,0.0854191,568,0.375916,568,0.77874,568,0.802592,
566,0.0194861,566,0.0878617,566,0.377644,566,0.780749,566,0.804505,
564,0.0227145,564,0.0906637,564,0.379385,564,0.782328,564,0.805864,
562,0.0265616,562,0.0939762,562,0.38102,562,0.783588,562,0.80682,
560,0.0312453,560,0.0978809,560,0.382734,560,0.784286,560,0.807346,
558,0.036771,558,0.102318,558,0.384523,558,0.784551,558,0.807552,
556,0.0433488,556,0.107467,556,0.386404,556,0.784373,556,0.807166,
554,0.0511596,554,0.113474,554,0.388369,554,0.783757,554,0.806417,
552,0.0602667,552,0.120587,552,0.390424,552,0.782869,552,0.805279,
550,0.0708789,550,0.128695,550,0.392742,550,0.781442,550,0.803844,
548,0.0832672,548,0.138019,548,0.395352,548,0.779738,548,0.801928,
546,0.0972794,546,0.148737,546,0.398341,546,0.777614,546,0.799703,
544,0.113537,544,0.160942,544,0.401646,544,0.775095,544,0.797138,
542,0.131427,542,0.174405,542,0.405338,542,0.772367,542,0.794186,
540,0.151303,540,0.189278,540,0.409391,540,0.769075,540,0.79078,
538,0.173098,538,0.205772,538,0.413844,538,0.765576,538,0.787044,
536,0.196827,536,0.223523,536,0.418923,536,0.761704,536,0.782986,
534,0.222204,534,0.242724,534,0.424312,534,0.75744,534,0.778426,
532,0.249037,532,0.263016,532,0.429938,532,0.752822,532,0.7734,
530,0.276821,530,0.284202,530,0.435978,530,0.747875,530,0.767956,
528,0.305914,528,0.306306,528,0.442302,528,0.742468,528,0.762148,
526,0.335461,526,0.329204,526,0.448966,526,0.736988,526,0.756122,
524,0.365014,524,0.352019,524,0.455764,524,0.731042,524,0.749655,
522,0.394923,522,0.375263,522,0.462641,522,0.724798,522,0.742747,
520,0.424249,520,0.398202,520,0.469544,520,0.718215,520,0.735478,
518,0.453065,518,0.420899,518,0.476414,518,0.711326,518,0.727827,
516,0.481535,516,0.443292,516,0.483245,516,0.704179,516,0.720022,
514,0.509384,514,0.465458,514,0.490104,514,0.69687,514,0.711981,
512,0.536582,512,0.487282,512,0.496712,512,0.689226,512,0.703503,
510,0.563476,510,0.508858,510,0.503372,510,0.681238,510,0.694786,
508,0.590114,508,0.530289,508,0.510004,508,0.673063,508,0.685826,
506,0.61582,506,0.551092,506,0.516314,506,0.664663,506,0.676591,
504,0.641529,504,0.571928,504,0.522599,504,0.656056,504,0.667182,
502,0.666922,502,0.592625,502,0.528957,502,0.647216,502,0.657534,
500,0.691555,500,0.612897,500,0.535116,500,0.638229,500,0.647744,
498,0.71585,498,0.632857,498,0.541267,498,0.629183,498,0.637753,
496,0.739542,496,0.652492,496,0.547281,496,0.61983,496,0.627575,
494,0.762181,494,0.671326,494,0.553121,494,0.610501,494,0.61731,
492,0.783994,492,0.689797,492,0.558813,492,0.600922,492,0.606914,
490,0.804726,490,0.707482,490,0.564467,490,0.59141,490,0.596507,
488,0.823863,488,0.724142,488,0.569752,488,0.581848,488,0.585915,
486,0.841426,486,0.739569,486,0.574724,486,0.57212,486,0.575157,
484,0.857205,484,0.753622,484,0.579374,484,0.562493,484,0.564594,
482,0.870985,482,0.766278,482,0.58356,482,0.552727,482,0.553712,
480,0.882979,480,0.777563,480,0.587341,480,0.543235,480,0.543032,
478,0.892799,478,0.787287,478,0.590588,478,0.533735,478,0.532379,
476,0.900979,476,0.795622,476,0.593502,476,0.524378,476,0.521783,
474,0.907042,474,0.802318,474,0.595746,474,0.515067,474,0.511301,
472,0.911545,472,0.807811,472,0.597599,472,0.506099,472,0.501082,
470,0.914548,470,0.81198,470,0.599019,470,0.497231,470,0.491038,
468,0.915956,468,0.814918,468,0.599977,468,0.488623,468,0.481246,
466,0.915868,466,0.816732,466,0.60053,466,0.48005,466,0.471665,
464,0.914731,464,0.817527,464,0.600816,464,0.471981,464,0.462482,
462,0.912241,462,0.817219,462,0.600629,462,0.46407,462,0.453468,
460,0.90854,460,0.815941,460,0.600164,460,0.456681,460,0.445033,
458,0.903599,458,0.813776,458,0.59936,458,0.449449,458,0.436951,
456,0.897572,456,0.810574,456,0.598254,456,0.442808,456,0.429335,
454,0.890468,454,0.806574,454,0.59704,454,0.43656,454,0.42237,
452,0.882095,452,0.801499,452,0.595387,452,0.430634,452,0.415768,
450,0.872981,450,0.795795,450,0.593539,450,0.425114,450,0.409642,
448,0.862629,448,0.788884,448,0.591363,448,0.420019,448,0.40397,
446,0.851249,446,0.781136,446,0.588882,446,0.415485,446,0.398857,
444,0.839071,444,0.772771,444,0.586222,444,0.411446,444,0.394298,
442,0.826312,442,0.763702,442,0.583469,442,0.407978,442,0.390448,
440,0.812897,440,0.754073,440,0.580481,440,0.405084,440,0.387228,
438,0.799294,438,0.744335,438,0.577604,438,0.402878,438,0.384933,
436,0.784895,436,0.733613,436,0.574149,436,0.400922,436,0.38285,
434,0.770323,434,0.722864,434,0.570844,434,0.399691,434,0.381574,
432,0.755928,432,0.712134,432,0.567706,432,0.399158,432,0.381338,
430,0.741241,430,0.70092,430,0.56423,430,0.398847,430,0.381453,
428,0.726456,428,0.689595,428,0.56072,428,0.399046,428,0.382265,
426,0.712059,426,0.678611,426,0.557501,426,0.400124,426,0.384084,
424,0.697496,424,0.667292,424,0.554114,424,0.401364,424,0.386519,
422,0.682985,422,0.656014,422,0.550713,422,0.403205,422,0.389911,
420,0.668972,420,0.645152,420,0.547586,420,0.405686,420,0.394126,
418,0.655182,418,0.634268,418,0.544432,418,0.408577,418,0.399223,
416,0.641629,416,0.6237,416,0.541408,416,0.412109,416,0.405269,
414,0.628625,414,0.613515,414,0.53861,414,0.41609,414,0.412287,
412,0.616118,412,0.603737,412,0.536089,412,0.420464,412,0.419944,
410,0.604,410,0.594291,410,0.533678,410,0.425306,410,0.428514,
408,0.592699,408,0.585426,408,0.53152,408,0.430523,408,0.437694,
406,0.582061,406,0.577136,406,0.529789,406,0.436246,406,0.447767,
404,0.571942,404,0.569342,404,0.528103,404,0.442062,404,0.458098,
402,0.562898,402,0.562483,402,0.527169,402,0.448665,402,0.469521,
400,0.554472,400,0.556157,400,0.526434,400,0.455176,400,0.480822,
398,0.547302,398,0.55098,398,0.526363,398,0.462124,398,0.492815,
396,0.540863,396,0.54637,396,0.526611,396,0.469253,396,0.504884,
394,0.535734,394,0.543005,394,0.527677,394,0.476815,394,0.51749,
392,0.531724,392,0.54066,392,0.529222,392,0.484622,392,0.530364,
390,0.528988,390,0.539359,390,0.531609,390,0.492788,390,0.543882,
388,0.527687,388,0.539446,388,0.534733,388,0.501232,388,0.557741,
386,0.528109,386,0.541153,386,0.53865,386,0.510099,386,0.57203,
384,0.530499,384,0.544184,384,0.543706,384,0.519341,384,0.586936,
382,0.53441,382,0.548729,382,0.549578,382,0.528768,382,0.602195,
380,0.540721,380,0.555348,380,0.556738,380,0.53864,380,0.617931,
378,0.548716,378,0.563501,378,0.564629,378,0.548319,378,0.633527,
376,0.558735,376,0.5732,376,0.573729,376,0.557928,376,0.649108,
374,0.570094,374,0.584164,374,0.583369,374,0.567082,374,0.664232,
372,0.582868,372,0.596227,372,0.593835,372,0.575779,372,0.678943,
370,0.595971,370,0.60872,370,0.604296,370,0.583574,370,0.692738,
368,0.60906,368,0.620942,368,0.614357,368,0.589929,368,0.705455,
366,0.621309,366,0.632206,366,0.623288,366,0.59494,366,0.717148,
364,0.632021,364,0.641795,364,0.630372,364,0.598336,364,0.728417,
362,0.640772,362,0.64957,362,0.635409,362,0.600115,362,0.740185,
360,0.647018,360,0.654685,360,0.637793,360,0.600547,360,0.752805,
358,0.65116,358,0.657395,358,0.637309,358,0.599921,358,0.767378,
356,0.653025,356,0.657937,356,0.634591,356,0.598723,356,0.783376,
354,0.65257,354,0.656223,354,0.629746,354,0.595873,354,0.798501,
352,0.650308,352,0.652783,352,0.623384,352,0.591104,352,0.809818,
350,0.646215,350,0.64782,350,0.616179,350,0.58352,350,0.813655,
348,0.640314,348,0.641121,348,0.607975,348,0.572579,348,0.808052,
346,0.63259,346,0.632997,346,0.599308,346,0.559798,346,0.794979,
344,0.622546,344,0.622938,344,0.589588,344,0.546766,344,0.778614,
342,0.610434,342,0.610999,342,0.579231,342,0.535662,342,0.764182,
340,0.595716,340,0.596725,340,0.567759,340,0.528105,340,0.755304,
338,0.579129,338,0.580742,338,0.555428,338,0.524868,338,0.754117,
336,0.560337,336,0.562683,336,0.542051,336,0.524332,336,0.758261,
334,0.540215,334,0.543679,334,0.528748,334,0.52656,334,0.76571,
332,0.519203,332,0.523998,332,0.515124,332,0.528842,332,0.771246,
330,0.497613,330,0.50414,330,0.501907,330,0.529492,330,0.770515,
328,0.475745,328,0.484049,328,0.488434,328,0.526857,328,0.761034,
326,0.453387,326,0.463476,326,0.47439,326,0.521099,326,0.744515,
324,0.43144,324,0.443202,324,0.460208,324,0.514226,324,0.725609,
322,0.409237,322,0.422595,322,0.445335,322,0.507357,322,0.708746,
320,0.38692,320,0.401473,320,0.429491,320,0.500748,320,0.695276,
318,0.365848,318,0.38142,318,0.414075,318,0.494463,318,0.684889,
316,0.345323,316,0.361689,316,0.398315,316,0.486608,316,0.673585,
314,0.325501,314,0.342534,314,0.38236,314,0.475677,314,0.658218,
312,0.307103,312,0.32491,312,0.36715,312,0.462161,312,0.638254,
310,0.289425,310,0.307526,310,0.351828,310,0.44588,310,0.613856,
308,0.273372,308,0.291626,308,0.337214,308,0.42921,308,0.589457,
306,0.258369,306,0.276148,306,0.322794,306,0.412112,306,0.566,
304,0.244794,304,0.262628,304,0.309429,304,0.39676,304,0.546456,
302,0.232829,302,0.250141,302,0.296348,302,0.382762,302,0.52904,
300,0.222243,300,0.238862,300,0.284874,300,0.368685,300,0.511714,

t=1hrs FeCl3 0uM,
t=1hrs FeCl3 0uM
Collection Time: 2024-09-11 11:41:48 AM
Operator Name  :
Scan Version 6.4.0.1610
Parameter List :
Instrument  Cary 7000
Instrument Version  3.07
Method Log     :
Method Name    :
Date/Time stamp: 2024-09-11 10:17:34 AM
Method Modifications:
ConcentrationReportSelected Changed: 2024-09-11 10:17:35 AM, Old:Choice 0, New:Choice 1
ConcentrationReportSelected Changed: 2024-09-11 10:17:35 AM, Old:ON, New:Choice 0
MCAReportSelected Changed: 2024-09-11 10:17:35 AM, Old:Choice 0, New:Choice 1
MCAReportSelected Changed: 2024-09-11 10:17:35 AM, Old:ON, New:Choice 0
X Start nm Changed: 2024-09-11 10:27:39 AM, Old:800.000, New:1400.000
X Stop nm Changed: 2024-09-11 10:27:39 AM, Old:200.000, New:300.000
UVVIS Scan Rate nm Changed: 2024-09-11 10:27:39 AM, Old:  602.007, New:  600.000
NIR Scan Rate nm Changed: 2024-09-11 10:27:39 AM, Old:    0.004, New:   12.000
Common Interval nm Changed: 2024-09-11 10:27:39 AM, Old:    1.000, New:    0.667
Source changeover Changed: 2024-09-11 10:27:39 AM, Old:   350.00, New:   300.00
Detector changeover Changed: 2024-09-11 10:27:39 AM, Old:   800.00, New:   900.00
Grating changeover Changed: 2024-09-11 10:27:39 AM, Old:   800.00, New:   900.00
Baseline Correction Changed: 2024-09-11 10:27:39 AM, Old:0, New:2
Sipper Type Changed: 2024-09-11 10:27:39 AM, Old:Internal RSA, New:External sipper
End Method Modifications
<Current Wavelength> , 300.000
<SBW (nm)> , 2.00
<Energy> , 57.54
<Slit Height> , Full

t=1hrs FeCl3 5uM,
t=1hrs FeCl3 5uM
Collection Time: 2024-09-11 11:48:44 AM
Operator Name  :
Scan Version 6.4.0.1610
Parameter List :
Instrument  Cary 7000
Instrument Version  3.07
Method Log     :
Method Name    :
Date/Time stamp: 2024-09-11 10:17:34 AM
Method Modifications:
ConcentrationReportSelected Changed: 2024-09-11 10:17:35 AM, Old:Choice 0, New:Choice 1
ConcentrationReportSelected Changed: 2024-09-11 10:17:35 AM, Old:ON, New:Choice 0
MCAReportSelected Changed: 2024-09-11 10:17:35 AM, Old:Choice 0, New:Choice 1
MCAReportSelected Changed: 2024-09-11 10:17:35 AM, Old:ON, New:Choice 0
X Start nm Changed: 2024-09-11 10:27:39 AM, Old:800.000, New:1400.000
X Stop nm Changed: 2024-09-11 10:27:39 AM, Old:200.000, New:300.000
UVVIS Scan Rate nm Changed: 2024-09-11 10:27:39 AM, Old:  602.007, New:  600.000
NIR Scan Rate nm Changed: 2024-09-11 10:27:39 AM, Old:    0.004, New:   12.000
Common Interval nm Changed: 2024-09-11 10:27:39 AM, Old:    1.000, New:    0.667
Source changeover Changed: 2024-09-11 10:27:39 AM, Old:   350.00, New:   300.00
Detector changeover Changed: 2024-09-11 10:27:39 AM, Old:   800.00, New:   900.00
Grating changeover Changed: 2024-09-11 10:27:39 AM, Old:   800.00, New:   900.00
Baseline Correction Changed: 2024-09-11 10:27:39 AM, Old:0, New:2
Sipper Type Changed: 2024-09-11 10:27:39 AM, Old:Internal RSA, New:External sipper
End Method Modifications
<Current Wavelength> , 300.000
<SBW (nm)> , 2.00
<Energy> , 60.26
<Slit Height> , Full

t=1hrs FeCl3 20uM,
t=1hrs FeCl3 20uM
Collection Time: 2024-09-11 11:53:15 AM
Operator Name  :
Scan Version 6.4.0.1610
Parameter List :
Instrument  Cary 7000
Instrument Version  3.07
Method Log     :
Method Name    :
Date/Time stamp: 2024-09-11 10:17:34 AM
Method Modifications:
ConcentrationReportSelected Changed: 2024-09-11 10:17:35 AM, Old:Choice 0, New:Choice 1
ConcentrationReportSelected Changed: 2024-09-11 10:17:35 AM, Old:ON, New:Choice 0
MCAReportSelected Changed: 2024-09-11 10:17:35 AM, Old:Choice 0, New:Choice 1
MCAReportSelected Changed: 2024-09-11 10:17:35 AM, Old:ON, New:Choice 0
X Start nm Changed: 2024-09-11 10:27:39 AM, Old:800.000, New:1400.000
X Stop nm Changed: 2024-09-11 10:27:39 AM, Old:200.000, New:300.000
UVVIS Scan Rate nm Changed: 2024-09-11 10:27:39 AM, Old:  602.007, New:  600.000
NIR Scan Rate nm Changed: 2024-09-11 10:27:39 AM, Old:    0.004, New:   12.000
Common Interval nm Changed: 2024-09-11 10:27:39 AM, Old:    1.000, New:    0.667
Source changeover Changed: 2024-09-11 10:27:39 AM, Old:   350.00, New:   300.00
Detector changeover Changed: 2024-09-11 10:27:39 AM, Old:   800.00, New:   900.00
Grating changeover Changed: 2024-09-11 10:27:39 AM, Old:   800.00, New:   900.00
Baseline Correction Changed: 2024-09-11 10:27:39 AM, Old:0, New:2
Sipper Type Changed: 2024-09-11 10:27:39 AM, Old:Internal RSA, New:External sipper
End Method Modifications
<Current Wavelength> , 300.000
<SBW (nm)> , 2.00
<Energy> , 63.10
<Slit Height> , Full

t=1hrs FeCl3 50uM,
t=1hrs FeCl3 50uM
Collection Time: 2024-09-11 11:57:42 AM
Operator Name  :
Scan Version 6.4.0.1610
Parameter List :
Instrument  Cary 7000
Instrument Version  3.07
Method Log     :
Method Name    :
Date/Time stamp: 2024-09-11 10:17:34 AM
Method Modifications:
ConcentrationReportSelected Changed: 2024-09-11 10:17:35 AM, Old:Choice 0, New:Choice 1
ConcentrationReportSelected Changed: 2024-09-11 10:17:35 AM, Old:ON, New:Choice 0
MCAReportSelected Changed: 2024-09-11 10:17:35 AM, Old:Choice 0, New:Choice 1
MCAReportSelected Changed: 2024-09-11 10:17:35 AM, Old:ON, New:Choice 0
X Start nm Changed: 2024-09-11 10:27:39 AM, Old:800.000, New:1400.000
X Stop nm Changed: 2024-09-11 10:27:39 AM, Old:200.000, New:300.000
UVVIS Scan Rate nm Changed: 2024-09-11 10:27:39 AM, Old:  602.007, New:  600.000
NIR Scan Rate nm Changed: 2024-09-11 10:27:39 AM, Old:    0.004, New:   12.000
Common Interval nm Changed: 2024-09-11 10:27:39 AM, Old:    1.000, New:    0.667
Source changeover Changed: 2024-09-11 10:27:39 AM, Old:   350.00, New:   300.00
Detector changeover Changed: 2024-09-11 10:27:39 AM, Old:   800.00, New:   900.00
Grating changeover Changed: 2024-09-11 10:27:39 AM, Old:   800.00, New:   900.00
Baseline Correction Changed: 2024-09-11 10:27:39 AM, Old:0, New:2
Sipper Type Changed: 2024-09-11 10:27:39 AM, Old:Internal RSA, New:External sipper
End Method Modifications
<Current Wavelength> , 300.000
<SBW (nm)> , 2.00
<Energy> , 72.44
<Slit Height> , Full

t=1hrs FeCl3 100uM,
t=1hrs FeCl3 100uM
Collection Time: 2024-09-11 12:04:35 PM
Operator Name  :
Scan Version 6.4.0.1610
Parameter List :
Instrument  Cary 7000
Instrument Version  3.07
Method Log     :
Method Name    :
Date/Time stamp: 2024-09-11 10:17:34 AM
Method Modifications:
ConcentrationReportSelected Changed: 2024-09-11 10:17:35 AM, Old:Choice 0, New:Choice 1
ConcentrationReportSelected Changed: 2024-09-11 10:17:35 AM, Old:ON, New:Choice 0
MCAReportSelected Changed: 2024-09-11 10:17:35 AM, Old:Choice 0, New:Choice 1
MCAReportSelected Changed: 2024-09-11 10:17:35 AM, Old:ON, New:Choice 0
X Start nm Changed: 2024-09-11 10:27:39 AM, Old:800.000, New:1400.000
X Stop nm Changed: 2024-09-11 10:27:39 AM, Old:200.000, New:300.000
UVVIS Scan Rate nm Changed: 2024-09-11 10:27:39 AM, Old:  602.007, New:  600.000
NIR Scan Rate nm Changed: 2024-09-11 10:27:39 AM, Old:    0.004, New:   12.000
Common Interval nm Changed: 2024-09-11 10:27:39 AM, Old:    1.000, New:    0.667
Source changeover Changed: 2024-09-11 10:27:39 AM, Old:   350.00, New:   300.00
Detector changeover Changed: 2024-09-11 10:27:39 AM, Old:   800.00, New:   900.00
Grating changeover Changed: 2024-09-11 10:27:39 AM, Old:   800.00, New:   900.00
Baseline Correction Changed: 2024-09-11 10:27:39 AM, Old:0, New:2
Sipper Type Changed: 2024-09-11 10:27:39 AM, Old:Internal RSA, New:External sipper
End Method Modifications
<Current Wavelength> , 300.000
<SBW (nm)> , 2.00
<Energy> , 72.44
<Slit Height> , Full