File: templates/ExpDat_2023_12_05_SL_007A_PS_280C_isotherm_1pt_min.csv
#EXPORTTYPE:                 ,DATA ALL
#FILE:                       ,2023_12_05_SL_007A_PS_280C_isotherm_1pt_min.ngb-ss5
#FORMAT:                     ,NETZSCH5
#FTYPE:                      ,ASCII
#IDENTITY:                   ,PS 001G (Mn~8K)
#DECIMAL:                    ,POINT
#SEPARATOR:                  ,COMMA
#MTYPE:                      ,DSC
#INSTRUMENT:                 ,NETZSCH STA 449F5
#PROJECT:                    ,2023_12_06_SL_007A
#DATE/TIME:                  ,12/6/2023 4:51:16 PM (UTC-5)
#CORR. FILE:                 ,
#TEMPCAL:                    ,28-06-2023 13:26
#SENSITIVITY:                ,28-06-2023 13:53
#LABORATORY:                 ,Tran/AAG
#OPERATOR:                   ,Stanley
#REMARK:                     ,
#SAMPLE:                     ,007A_001G
#SAMPLE MASS /mg:            ,28.63
#MATERIAL:                   ,Polystyrene
#REFERENCE:                  ,
#REFERENCE MASS /mg:         ,0
#TYPE OF CRUCIBLE:           ,Al2O3 85 ‘l, open
#SAMPLE CRUCIBLE MASS /mg:   ,0
#REFERENCE CRUCIBLE MASS /mg:,0
#DSC RANGE /‘V:              ,5000
#TG RANGE /mg:               ,35000
#TAU-R:                      ,---
#CORR. CODE:                 ,000
#EXO:                        ,-1
#RANGE:                      ,20›C....800›C/0.0....10.0K/min
#SEGMENT:                    ,S1-4/4
#SEG. 1:                     ,20›C/00:20/20›C
#SEG. 2:                     ,20›C/1.0(K/min)/280›C
#SEG. 3:                     ,280›C/24:00/280›C
#SEG. 4:                     ,280›C/10.0(K/min)/800›C

##Temp./›C,Time/min,DSC/(mW/mg),Mass/%,Gas Flow(purge2)/(ml/min),Gas Flow(protective)/(ml/min),IonCurrent(m:18)/A,IonCurrent(m:28)/A,IonCurrent(m:40)/A,IonCurrent(m:104)/A,IonCurrent(m:105)/A,Sensit./(uV/mW),Segment
 28.47100,   0.00000, 1.567268e-02,100,50.00000,20.00000,6.342102e-10,2.670383e-07,2.611256e-07,7.164955e-12,3.722191e-12,0.92326,1
 31.06500,  10.00000,-8.337069e-03, 98.22106,50.00000,20.00000,1.156964e-09,2.412160e-07,2.568010e-07,6.554904e-12,4.316685e-12,0.92375,1
 31.06694,  20.00000,-8.193599e-03, 97.83585,50.00000,20.00000,8.001849e-10,1.025938e-07,3.697892e-07,7.494403e-12,4.444022e-12,0.92375,2
 31.01897,  30.00000,-8.366014e-03, 97.62347,50.00000,20.00000,6.471071e-10,4.871215e-08,4.104542e-07,7.760851e-12,4.355176e-12,0.92374,2
 31.10096,  40.00000,-7.471514e-03, 97.57299,50.00000,20.00000,5.787021e-10,2.532515e-08,4.300639e-07,7.731884e-12,4.381821e-12,0.92375,2
 43.18603,  50.00000, 4.946975e-02, 98.13804,50.00000,20.00000,5.449267e-10,1.424028e-08,4.403956e-07,7.970111e-12,4.544585e-12,0.92543,2
 60.40312,  60.00000, 2.270202e-02, 98.16733,50.00000,20.00000,5.286576e-10,9.353326e-09,4.434685e-07,8.010882e-12,4.716801e-12,0.92619,2
 69.88220,  70.00000, 2.095289e-02, 98.22420,50.00000,20.00000,5.142548e-10,6.915539e-09,4.484322e-07,8.291081e-12,4.686931e-12,0.92582,2
 79.79916,  80.00000, 2.429020e-02, 98.30049,50.00000,20.00000,5.052740e-10,5.692994e-09,4.508829e-07,8.457626e-12,4.782864e-12,0.92484,2
 89.86419,  90.00000, 2.678593e-02, 98.35975,50.00000,20.00000,4.977594e-10,5.112002e-09,4.521847e-07,8.389612e-12,4.875413e-12,0.92324,2
 99.88118, 100, 3.318752e-02, 98.37005,50.00000,20.00000,4.915515e-10,4.814664e-09,4.535678e-07,8.515849e-12,4.983803e-12,0.92106,2
109.937, 110, 2.884550e-02, 98.32892,50.00000,20.00000,4.929002e-10,4.675898e-09,4.541546e-07,8.532202e-12,5.234793e-12,0.91830,2
119.943, 120, 3.279305e-02, 98.31783,50.00000,20.00000,4.860397e-10,4.580369e-09,4.550542e-07,8.465931e-12,5.340023e-12,0.91500,2
129.949, 130, 3.576842e-02, 98.37712,50.00000,20.00000,4.843221e-10,4.522668e-09,4.540199e-07,8.638582e-12,5.111413e-12,0.91118,2
139.945, 140, 3.781938e-02, 98.44077,50.00000,20.00000,4.841630e-10,4.504721e-09,4.542019e-07,8.654450e-12,5.279274e-12,0.90685,2
149.947, 150, 2.859885e-02, 98.48303,50.00000,20.00000,4.833089e-10,4.473191e-09,4.546944e-07,8.697165e-12,5.374999e-12,0.90203,2
159.97, 160, 1.881143e-02, 98.51940,50.00000,20.00000,4.801246e-10,4.446947e-09,4.553480e-07,8.722647e-12,5.520005e-12,0.89673,2
169.965, 170, 1.432660e-02, 98.54588,50.00000,20.00000,4.774744e-10,4.438689e-09,4.546078e-07,8.883649e-12,5.841629e-12,0.89101,2
179.972, 180, 1.020983e-02, 98.56245,50.00000,20.00000,4.759476e-10,4.408040e-09,4.551753e-07,9.101748e-12,6.134266e-12,0.88485,2
189.977, 190, 6.554101e-03, 98.59132,50.00000,20.00000,4.776786e-10,4.409679e-09,4.559495e-07,9.189285e-12,6.473051e-12,0.87830,2
199.976, 200, 2.110048e-03, 98.60826,50.00000,20.00000,4.781004e-10,4.388866e-09,4.552816e-07,9.514164e-12,6.414303e-12,0.87139,2
209.98, 210,-3.823209e-03, 98.62370,50.00000,20.00000,4.767580e-10,4.371396e-09,4.550553e-07,1.011717e-11,6.591798e-12,0.86412,2
219.97, 220,-9.830509e-03, 98.64782,50.00000,20.00000,4.753124e-10,4.376803e-09,4.547361e-07,1.139055e-11,6.666695e-12,0.85654,2
229.959, 230,-1.654700e-02, 98.64032,50.00000,20.00000,4.756409e-10,4.375968e-09,4.544431e-07,1.532276e-11,7.640595e-12,0.84866,2
239.963, 240,-2.279526e-02, 98.59919,50.00000,20.00000,4.765567e-10,4.375276e-09,4.531342e-07,2.575310e-11,8.994960e-12,0.84050,2
249.946, 250,-3.023116e-02, 98.50083,50.00000,20.00000,4.774335e-10,4.353145e-09,4.539609e-07,4.434036e-11,1.129431e-11,0.83211,2
259.941, 260,-3.922030e-02, 98.26926,50.00000,20.00000,4.726285e-10,4.334128e-09,4.517985e-07,7.878774e-11,1.520380e-11,0.82349,2
269.944, 270,-5.014350e-02, 97.85713,50.00000,20.00000,4.740229e-10,4.319458e-09,4.506999e-07,1.271066e-10,2.117075e-11,0.81466,2
279.91, 280,-5.466167e-02, 97.24119,50.00000,20.00000,4.751620e-10,4.319143e-09,4.490921e-07,1.880815e-10,2.726888e-11,0.80570,3
280.242, 290,-9.823631e-02, 96.53070,50.00000,20.00000,4.718655e-10,4.285413e-09,4.477494e-07,2.038888e-10,2.937789e-11,0.80540,3
280.045, 300,-8.812550e-02, 95.92372,50.00000,20.00000,4.693539e-10,4.258607e-09,4.469232e-07,1.896670e-10,2.849275e-11,0.80558,3
280.025, 310,-8.319316e-02, 95.36103,50.00000,20.00000,4.661440e-10,4.225954e-09,4.467353e-07,1.747131e-10,2.629960e-11,0.80560,3
280.017, 320,-8.005096e-02, 94.85803,50.00000,20.00000,4.634475e-10,4.182960e-09,4.454133e-07,1.606059e-10,2.485648e-11,0.80560,3
280.026, 330,-7.790105e-02, 94.38029,50.00000,20.00000,4.624307e-10,4.143551e-09,4.444099e-07,1.481747e-10,2.293937e-11,0.80559,3
280.021, 340,-7.631314e-02, 93.94087,50.00000,20.00000,4.613547e-10,4.108091e-09,4.416493e-07,1.364011e-10,2.145776e-11,0.80560,3
280.008, 350,-7.412942e-02, 93.52833,50.00000,20.00000,4.580825e-10,4.093805e-09,4.420555e-07,1.287554e-10,2.030233e-11,0.80561,3
280.006, 360,-7.072185e-02, 93.14663,50.00000,20.00000,4.574385e-10,4.072363e-09,4.405522e-07,1.189024e-10,1.931866e-11,0.80561,3
280.013, 370,-6.701830e-02, 92.77677,50.00000,20.00000,4.540481e-10,4.032743e-09,4.398663e-07,1.118611e-10,1.814676e-11,0.80561,3
280.01, 380,-6.007068e-02, 92.43101,50.00000,20.00000,4.536849e-10,4.007033e-09,4.391953e-07,1.060899e-10,1.783939e-11,0.80561,3
280.023, 390,-5.530762e-02, 92.10581,50.00000,20.00000,4.528840e-10,3.982061e-09,4.372493e-07,9.931081e-11,1.683921e-11,0.80560,3
280.023, 400,-5.120570e-02, 91.79406,50.00000,20.00000,4.485938e-10,3.950024e-09,4.350995e-07,9.489832e-11,1.664330e-11,0.80560,3
280.024, 410,-4.654206e-02, 91.49962,50.00000,20.00000,4.494076e-10,3.926193e-09,4.345990e-07,8.919970e-11,1.630242e-11,0.80560,3
280.009, 420,-4.372971e-02, 91.22502,50.00000,20.00000,4.487351e-10,3.907096e-09,4.331681e-07,8.533671e-11,1.532689e-11,0.80561,3
280.012, 430,-4.151350e-02, 90.94843,50.00000,20.00000,4.487316e-10,3.884239e-09,4.319503e-07,8.149637e-11,1.501506e-11,0.80561,3
280.025, 440,-3.972739e-02, 90.70501,50.00000,20.00000,4.480722e-10,3.872186e-09,4.311597e-07,7.767517e-11,1.513443e-11,0.80559,3
280.017, 450,-3.843808e-02, 90.46278,50.00000,20.00000,4.455290e-10,3.845734e-09,4.292037e-07,7.436707e-11,1.428912e-11,0.80560,3
280.021, 460,-3.695028e-02, 90.22450,50.00000,20.00000,4.454044e-10,3.830460e-09,4.294702e-07,7.083744e-11,1.403343e-11,0.80560,3
280, 470,-3.615508e-02, 89.99929,50.00000,20.00000,4.419600e-10,3.811485e-09,4.281204e-07,6.866751e-11,1.387485e-11,0.80562,3
280.016, 480,-3.572425e-02, 89.78509,50.00000,20.00000,4.410222e-10,3.794662e-09,4.278859e-07,6.527989e-11,1.330605e-11,0.80560,3
280.011, 490,-3.512903e-02, 89.57215,50.00000,20.00000,4.407264e-10,3.790640e-09,4.258578e-07,6.255729e-11,1.306681e-11,0.80561,3
280.021, 500,-3.420362e-02, 89.37893,50.00000,20.00000,4.385996e-10,3.764531e-09,4.252031e-07,6.066771e-11,1.270999e-11,0.80560,3
280.022, 510,-3.407201e-02, 89.19000,50.00000,20.00000,4.375743e-10,3.747389e-09,4.234966e-07,5.829376e-11,1.262361e-11,0.80560,3
280.027, 520,-3.327775e-02, 89.00155,50.00000,20.00000,4.355641e-10,3.733581e-09,4.216489e-07,5.752058e-11,1.206076e-11,0.80559,3
280.018, 530,-3.360840e-02, 88.83202,50.00000,20.00000,4.362508e-10,3.719468e-09,4.225771e-07,5.539639e-11,1.218740e-11,0.80560,3
280.028, 540,-3.274836e-02, 88.66095,50.00000,20.00000,4.379125e-10,3.696263e-09,4.213272e-07,5.373078e-11,1.189393e-11,0.80559,3
280.009, 550,-3.211835e-02, 88.49419,50.00000,20.00000,4.371411e-10,3.679595e-09,4.211138e-07,5.203369e-11,1.198459e-11,0.80561,3
280.023, 560,-3.172292e-02, 88.34009,50.00000,20.00000,4.350797e-10,3.681822e-09,4.189901e-07,5.138007e-11,1.156980e-11,0.80560,3
280.027, 570,-3.139053e-02, 88.18598,50.00000,20.00000,4.344742e-10,3.663593e-09,4.180846e-07,4.912201e-11,1.106065e-11,0.80559,3
280.02, 580,-3.059720e-02, 88.03820,50.00000,20.00000,4.335025e-10,3.656316e-09,4.179022e-07,4.774709e-11,1.134495e-11,0.80560,3
280.02, 590,-3.294664e-02, 87.88880,50.00000,20.00000,4.359647e-10,3.634474e-09,4.177868e-07,4.673821e-11,1.104364e-11,0.80560,3
280.01, 600,-3.264840e-02, 87.74341,50.00000,20.00000,4.320937e-10,3.625157e-09,4.171052e-07,4.627083e-11,1.090327e-11,0.80561,3
280.006, 610,-3.245053e-02, 87.60112,50.00000,20.00000,4.357288e-10,3.613189e-09,4.162136e-07,4.516395e-11,1.082744e-11,0.80561,3
280.01, 620,-3.261577e-02, 87.46481,50.00000,20.00000,4.334549e-10,3.602814e-09,4.148294e-07,4.370847e-11,1.099927e-11,0.80561,3
280.025, 630,-3.251703e-02, 87.33680,50.00000,20.00000,4.299994e-10,3.598280e-09,4.135869e-07,4.348405e-11,1.068166e-11,0.80560,3
280.023, 640,-3.225141e-02, 87.19652,50.00000,20.00000,4.307007e-10,3.594250e-09,4.141247e-07,4.231179e-11,1.027749e-11,0.80560,3
280.017, 650,-3.264854e-02, 87.07283,50.00000,20.00000,4.271107e-10,3.573029e-09,4.127923e-07,4.157196e-11,1.071824e-11,0.80560,3
280.012, 660,-3.185436e-02, 86.94598,50.00000,20.00000,4.280654e-10,3.553394e-09,4.120066e-07,4.006373e-11,1.023562e-11,0.80561,3
280.016, 670,-3.215319e-02, 86.82390,50.00000,20.00000,4.271213e-10,3.557768e-09,4.123787e-07,3.961671e-11,1.029620e-11,0.80560,3
280.003, 680,-3.168935e-02, 86.70217,50.00000,20.00000,4.295609e-10,3.557010e-09,4.110889e-07,3.870007e-11,1.035669e-11,0.80561,3
280.014, 690,-3.145787e-02, 86.59157,50.00000,20.00000,4.258226e-10,3.539983e-09,4.099726e-07,3.824997e-11,1.012591e-11,0.80560,3
280.018, 700,-3.165702e-02, 86.47774,50.00000,20.00000,4.245809e-10,3.524854e-09,4.099332e-07,3.796907e-11,9.977421e-12,0.80560,3
279.996, 710,-3.148953e-02, 86.35804,50.00000,20.00000,4.220160e-10,3.515275e-09,4.095376e-07,3.750358e-11,1.019943e-11,0.80562,3
280.015, 720,-3.079607e-02, 86.24420,50.00000,20.00000,4.228889e-10,3.502889e-09,4.086314e-07,3.691529e-11,9.697741e-12,0.80560,3
280.011, 730,-3.076316e-02, 86.13040,50.00000,20.00000,4.197309e-10,3.494275e-09,4.091729e-07,3.618239e-11,9.719940e-12,0.80561,3
280.038, 740,-3.079639e-02, 86.03042,50.00000,20.00000,4.197239e-10,3.490737e-09,4.062768e-07,3.554198e-11,9.528936e-12,0.80558,3
280.019, 750,-3.049901e-02, 85.91863,50.00000,20.00000,4.237105e-10,3.469134e-09,4.066175e-07,3.535443e-11,9.576289e-12,0.80560,3
280.024, 760,-3.043247e-02, 85.80836,50.00000,20.00000,4.209718e-10,3.476876e-09,4.060398e-07,3.497195e-11,9.366198e-12,0.80560,3
280.02, 770,-3.036657e-02, 85.69892,50.00000,20.00000,4.217443e-10,3.455306e-09,4.056006e-07,3.430969e-11,9.565745e-12,0.80560,3
280.013, 780,-3.033289e-02, 85.60764,50.00000,20.00000,4.206712e-10,3.455205e-09,4.049545e-07,3.366956e-11,9.512641e-12,0.80561,3
279.999, 790,-2.987008e-02, 85.50293,50.00000,20.00000,4.207561e-10,3.450698e-09,4.049748e-07,3.362320e-11,9.455751e-12,0.80562,3
280.008, 800,-2.973791e-02, 85.39935,50.00000,20.00000,4.170730e-10,3.429469e-09,4.040487e-07,3.262334e-11,9.079143e-12,0.80561,3
280.023, 810,-3.016963e-02, 85.30812,50.00000,20.00000,4.173738e-10,3.414769e-09,4.024863e-07,3.303760e-11,9.017339e-12,0.80560,3
280.01, 820,-2.943984e-02, 85.20890,50.00000,20.00000,4.168207e-10,3.411281e-09,4.029006e-07,3.224225e-11,9.513750e-12,0.80561,3
280.034, 830,-2.980410e-02, 85.12157,50.00000,20.00000,4.156388e-10,3.406828e-09,4.023285e-07,3.185034e-11,8.921299e-12,0.80559,3
280.024, 840,-2.940750e-02, 85.02044,50.00000,20.00000,4.137128e-10,3.395897e-09,4.009618e-07,3.174541e-11,9.128860e-12,0.80560,3
280.01, 850,-2.950490e-02, 84.92838,50.00000,20.00000,4.139430e-10,3.385425e-09,4.016747e-07,3.079647e-11,9.013505e-12,0.80561,3
280.018, 860,-2.943868e-02, 84.83472,50.00000,20.00000,4.129046e-10,3.380736e-09,4.005304e-07,3.105152e-11,8.801173e-12,0.80560,3
280.007, 870,-2.897668e-02, 84.74184,50.00000,20.00000,4.140454e-10,3.367670e-09,3.988027e-07,2.969729e-11,8.772786e-12,0.80561,3
280.027, 880,-2.881240e-02, 84.66247,50.00000,20.00000,4.124508e-10,3.370911e-09,3.988674e-07,3.018623e-11,8.399891e-12,0.80559,3
280.01, 890,-2.904287e-02, 84.57629,50.00000,20.00000,4.102017e-10,3.355313e-09,3.976183e-07,2.958408e-11,8.487281e-12,0.80561,3
280.007, 900,-2.844749e-02, 84.48346,50.00000,20.00000,4.114645e-10,3.348800e-09,3.969334e-07,2.962140e-11,8.444299e-12,0.80561,3
280.019, 910,-2.831629e-02, 84.39572,50.00000,20.00000,4.094141e-10,3.340924e-09,3.965876e-07,2.888222e-11,8.510862e-12,0.80560,3
280.024, 920,-2.821694e-02, 84.31391,50.00000,20.00000,4.090741e-10,3.345920e-09,3.961046e-07,2.908560e-11,8.463173e-12,0.80560,3
280.005, 930,-2.867949e-02, 84.23053,50.00000,20.00000,4.089835e-10,3.329771e-09,3.956129e-07,2.850550e-11,8.311246e-12,0.80561,3
280.018, 940,-2.841481e-02, 84.14639,50.00000,20.00000,4.065584e-10,3.315439e-09,3.944564e-07,2.826061e-11,8.410792e-12,0.80560,3
280.029, 950,-2.811751e-02, 84.06457,50.00000,20.00000,4.044533e-10,3.314501e-09,3.943545e-07,2.823734e-11,8.215904e-12,0.80559,3
280.024, 960,-2.791794e-02, 83.98553,50.00000,20.00000,4.091327e-10,3.308949e-09,3.936810e-07,2.773193e-11,8.102225e-12,0.80560,3
280.016, 970,-2.795163e-02, 83.91086,50.00000,20.00000,4.040799e-10,3.302983e-09,3.941785e-07,2.723734e-11,8.047460e-12,0.80560,3
280.014, 980,-2.788483e-02, 83.83067,50.00000,20.00000,4.058844e-10,3.290172e-09,3.931320e-07,2.695039e-11,8.251372e-12,0.80560,3
280.014, 990,-2.771984e-02, 83.74806,50.00000,20.00000,4.039261e-10,3.271955e-09,3.931941e-07,2.687149e-11,7.857545e-12,0.80560,3
280.021,1000,-2.788511e-02, 83.66705,50.00000,20.00000,4.037766e-10,3.282335e-09,3.915300e-07,2.676266e-11,7.994146e-12,0.80560,3
280.023,1010,-2.771995e-02, 83.58689,50.00000,20.00000,4.013790e-10,3.264212e-09,3.915473e-07,2.633690e-11,7.872660e-12,0.80560,3
280.003,1020,-2.762103e-02, 83.51496,50.00000,20.00000,4.004540e-10,3.245873e-09,3.917433e-07,2.630512e-11,7.667982e-12,0.80561,3
280.019,1030,-2.728991e-02, 83.43749,50.00000,20.00000,3.991374e-10,3.246641e-09,3.912349e-07,2.655400e-11,7.809772e-12,0.80560,3
280.021,1040,-2.709162e-02, 83.36557,50.00000,20.00000,3.982756e-10,3.234034e-09,3.912401e-07,2.616560e-11,7.735860e-12,0.80560,3
280.02,1050,-2.696001e-02, 83.28891,50.00000,20.00000,4.013304e-10,3.224499e-09,3.896506e-07,2.608187e-11,7.806480e-12,0.80560,3
280.018,1060,-2.702560e-02, 83.20515,50.00000,20.00000,3.974763e-10,3.215709e-09,3.901823e-07,2.537319e-11,7.733713e-12,0.80560,3
280.022,1070,-2.702529e-02, 83.12614,50.00000,20.00000,3.982536e-10,3.209885e-09,3.901257e-07,2.543337e-11,7.524252e-12,0.80560,3
280.011,1080,-2.649608e-02, 83.04672,50.00000,20.00000,3.981539e-10,3.196163e-09,3.890575e-07,2.529149e-11,7.473194e-12,0.80561,3
280.019,1090,-2.672750e-02, 82.96610,50.00000,20.00000,3.994694e-10,3.197835e-09,3.882806e-07,2.510613e-11,7.614778e-12,0.80560,3
280.013,1100,-2.616537e-02, 82.88427,50.00000,20.00000,3.986365e-10,3.196305e-09,3.877477e-07,2.482068e-11,7.374449e-12,0.80561,3
280.031,1110,-2.609924e-02, 82.81435,50.00000,20.00000,3.952919e-10,3.193809e-09,3.868265e-07,2.485090e-11,7.522868e-12,0.80559,3
280.024,1120,-2.580162e-02, 82.73850,50.00000,20.00000,3.962517e-10,3.194338e-09,3.863054e-07,2.422810e-11,7.245063e-12,0.80560,3
280.01,1130,-2.590097e-02, 82.67247,50.00000,20.00000,3.955625e-10,3.174764e-09,3.859875e-07,2.412576e-11,7.168914e-12,0.80561,3
280.002,1140,-2.573494e-02, 82.60771,50.00000,20.00000,3.951470e-10,3.160741e-09,3.855469e-07,2.402513e-11,7.220092e-12,0.80562,3
280.01,1150,-2.576781e-02, 82.53618,50.00000,20.00000,3.928088e-10,3.160514e-09,3.848125e-07,2.367356e-11,7.052660e-12,0.80561,3
280.011,1160,-2.540356e-02, 82.46268,50.00000,20.00000,3.949100e-10,3.159122e-09,3.838930e-07,2.372068e-11,7.248639e-12,0.80561,3
280.023,1170,-2.533840e-02, 82.39549,50.00000,20.00000,3.929256e-10,3.151798e-09,3.845212e-07,2.340644e-11,7.096540e-12,0.80560,3
280.007,1180,-2.507432e-02, 82.33067,50.00000,20.00000,3.902911e-10,3.131101e-09,3.827918e-07,2.341202e-11,7.270105e-12,0.80561,3
280.022,1190,-2.523868e-02, 82.25717,50.00000,20.00000,3.911308e-10,3.128149e-09,3.826175e-07,2.291659e-11,7.110800e-12,0.80560,3
280.011,1200,-2.533868e-02, 82.19238,50.00000,20.00000,3.891220e-10,3.128130e-09,3.830520e-07,2.309859e-11,7.020279e-12,0.80561,3
280.035,1210,-2.510694e-02, 82.12599,50.00000,20.00000,3.912118e-10,3.126235e-09,3.820967e-07,2.294365e-11,6.937317e-12,0.80559,3
280.007,1220,-2.520613e-02, 82.06715,50.00000,20.00000,3.899826e-10,3.124157e-09,3.815437e-07,2.254335e-11,6.982819e-12,0.80561,3
280.023,1230,-2.494102e-02, 81.99799,50.00000,20.00000,3.905013e-10,3.113802e-09,3.800820e-07,2.239102e-11,6.887726e-12,0.80560,3
280.02,1240,-2.457777e-02, 81.93871,50.00000,20.00000,3.895550e-10,3.107487e-09,3.804031e-07,2.239827e-11,6.887301e-12,0.80560,3
280.004,1250,-2.487576e-02, 81.86835,50.00000,20.00000,3.876775e-10,3.089434e-09,3.808550e-07,2.237131e-11,6.780597e-12,0.80561,3
280.014,1260,-2.470948e-02, 81.80436,50.00000,20.00000,3.851060e-10,3.079694e-09,3.797192e-07,2.196829e-11,7.032947e-12,0.80560,3
280.02,1270,-2.441157e-02, 81.73164,50.00000,20.00000,3.855924e-10,3.062853e-09,3.791934e-07,2.234348e-11,6.687151e-12,0.80560,3
280.023,1280,-2.414784e-02, 81.67317,50.00000,20.00000,3.845818e-10,3.059260e-09,3.783026e-07,2.178302e-11,6.804604e-12,0.80560,3
280.001,1290,-2.437932e-02, 81.60717,50.00000,20.00000,3.851786e-10,3.045750e-09,3.780174e-07,2.174094e-11,6.635254e-12,0.80562,3
280.029,1300,-2.395020e-02, 81.54275,50.00000,20.00000,3.825485e-10,3.057038e-09,3.786348e-07,2.121597e-11,6.663363e-12,0.80559,3
280.007,1310,-2.437833e-02, 81.48272,50.00000,20.00000,3.843270e-10,3.050199e-09,3.781847e-07,2.111999e-11,6.539208e-12,0.80561,3
280.021,1320,-2.411478e-02, 81.41907,50.00000,20.00000,3.841879e-10,3.057951e-09,3.770851e-07,2.150294e-11,6.547029e-12,0.80560,3
280.014,1330,-2.384959e-02, 81.36023,50.00000,20.00000,3.808895e-10,3.037168e-09,3.767050e-07,2.155237e-11,6.634143e-12,0.80561,3
280.029,1340,-2.361807e-02, 81.29306,50.00000,20.00000,3.851574e-10,3.022361e-09,3.771125e-07,2.074532e-11,6.271276e-12,0.80559,3
280.012,1350,-2.394975e-02, 81.23573,50.00000,20.00000,3.830546e-10,3.020470e-09,3.768826e-07,2.070517e-11,6.425207e-12,0.80561,3
280.025,1360,-2.381583e-02, 81.16540,50.00000,20.00000,3.803509e-10,3.018814e-09,3.757620e-07,2.133787e-11,6.343363e-12,0.80559,3
280.017,1370,-2.351907e-02, 81.11839,50.00000,20.00000,3.799646e-10,3.004745e-09,3.751679e-07,2.045228e-11,6.203074e-12,0.80560,3
280.008,1380,-2.298945e-02, 81.05871,50.00000,20.00000,3.813672e-10,3.008788e-09,3.747086e-07,2.100514e-11,6.211907e-12,0.80561,3
280.016,1390,-2.312158e-02, 80.99551,50.00000,20.00000,3.819269e-10,3.001695e-09,3.749143e-07,2.081529e-11,6.182571e-12,0.80560,3
280.011,1400,-2.305528e-02, 80.93661,50.00000,20.00000,3.821574e-10,2.997009e-09,3.750074e-07,2.044032e-11,6.293648e-12,0.80561,3
280.01,1410,-2.315481e-02, 80.87222,50.00000,20.00000,3.788399e-10,2.991026e-09,3.740521e-07,2.031764e-11,6.435844e-12,0.80561,3
280,1420,-2.299057e-02, 80.81414,50.00000,20.00000,3.777595e-10,2.982612e-09,3.731457e-07,2.004845e-11,6.188670e-12,0.80562,3
280.016,1430,-2.285709e-02, 80.76039,50.00000,20.00000,3.790898e-10,2.980507e-09,3.733748e-07,2.029949e-11,6.338232e-12,0.80560,3
280.016,1440,-2.332044e-02, 80.69994,50.00000,20.00000,3.750386e-10,2.973232e-09,3.728918e-07,1.965282e-11,6.239589e-12,0.80560,3
280.019,1450,-2.298977e-02, 80.64262,50.00000,20.00000,3.739661e-10,2.962440e-09,3.727083e-07,1.997429e-11,6.184314e-12,0.80560,3
280.005,1460,-2.288891e-02, 80.58848,50.00000,20.00000,3.746986e-10,2.972126e-09,3.718096e-07,1.948071e-11,6.268501e-12,0.80561,3
280.014,1470,-2.255979e-02, 80.53118,50.00000,20.00000,3.765402e-10,2.958794e-09,3.721381e-07,1.989954e-11,6.276266e-12,0.80560,3
280.016,1480,-2.262630e-02, 80.46879,50.00000,20.00000,3.759145e-10,2.950233e-09,3.712384e-07,1.960679e-11,6.040141e-12,0.80560,3
280.019,1490,-2.275781e-02, 80.40751,50.00000,20.00000,3.740870e-10,2.944936e-09,3.714959e-07,1.972527e-11,6.095432e-12,0.80560,3
280.01,1500,-2.262420e-02, 80.35731,50.00000,20.00000,3.779094e-10,2.946510e-09,3.713379e-07,1.971037e-11,5.921795e-12,0.80561,3
280.001,1510,-2.199740e-02, 80.30161,50.00000,20.00000,3.745235e-10,2.939304e-09,3.706423e-07,1.980320e-11,6.026655e-12,0.80562,3
280.011,1520,-2.216261e-02, 80.24039,50.00000,20.00000,3.731243e-10,2.933792e-09,3.698395e-07,1.951888e-11,5.991568e-12,0.80561,3
280.016,1530,-2.249299e-02, 80.18187,50.00000,20.00000,3.723173e-10,2.925386e-09,3.697595e-07,1.908813e-11,5.947941e-12,0.80560,3
280.024,1540,-2.232838e-02, 80.12853,50.00000,20.00000,3.705962e-10,2.912800e-09,3.687343e-07,1.894983e-11,6.026349e-12,0.80560,3
280.019,1550,-2.232779e-02, 80.06889,50.00000,20.00000,3.689146e-10,2.910819e-09,3.695333e-07,1.894680e-11,5.769564e-12,0.80560,3
280.014,1560,-2.239518e-02, 80.01156,50.00000,20.00000,3.698798e-10,2.907004e-09,3.690812e-07,1.892110e-11,6.027758e-12,0.80560,3
280.019,1570,-2.206355e-02, 79.96218,50.00000,20.00000,3.678695e-10,2.904975e-09,3.686368e-07,1.855409e-11,5.961633e-12,0.80560,3
280.005,1580,-2.203040e-02, 79.90728,50.00000,20.00000,3.701566e-10,2.896776e-09,3.689844e-07,1.846630e-11,5.869675e-12,0.80561,3
280.025,1590,-2.206352e-02, 79.85631,50.00000,20.00000,3.698462e-10,2.894019e-09,3.680221e-07,1.847968e-11,5.731562e-12,0.80559,3
280.005,1600,-2.199713e-02, 79.79978,50.00000,20.00000,3.671961e-10,2.894120e-09,3.680405e-07,1.854684e-11,5.816300e-12,0.80561,3
280.013,1610,-2.206381e-02, 79.75040,50.00000,20.00000,3.685124e-10,2.886135e-09,3.670080e-07,1.816750e-11,5.780325e-12,0.80561,3
280.019,1620,-2.199683e-02, 79.69705,50.00000,20.00000,3.646668e-10,2.880465e-09,3.676571e-07,1.852406e-11,5.661533e-12,0.80560,3
280.018,1630,-2.133650e-02, 79.63739,50.00000,20.00000,3.664838e-10,2.871369e-09,3.663388e-07,1.850978e-11,5.624842e-12,0.80560,3
280.015,1640,-2.189707e-02, 79.58365,50.00000,20.00000,3.653027e-10,2.868080e-09,3.663450e-07,1.835725e-11,5.829475e-12,0.80560,3
280.006,1650,-2.183100e-02, 79.53304,50.00000,20.00000,3.649529e-10,2.870175e-09,3.658329e-07,1.838276e-11,5.658840e-12,0.80561,3
280.019,1660,-2.199734e-02, 79.47853,50.00000,20.00000,3.661410e-10,2.859280e-09,3.659088e-07,1.809772e-11,5.745276e-12,0.80560,3
280.033,1670,-2.169895e-02, 79.42637,50.00000,20.00000,3.621676e-10,2.852609e-09,3.654531e-07,1.825230e-11,5.615907e-12,0.80559,3
280.031,1680,-2.196487e-02, 79.36906,50.00000,20.00000,3.633317e-10,2.846431e-09,3.652232e-07,1.831835e-11,5.537552e-12,0.80559,3
280.008,1690,-2.169870e-02, 79.31452,50.00000,20.00000,3.647700e-10,2.841739e-09,3.642749e-07,1.785428e-11,5.650625e-12,0.80561,3
280.02,1700,-2.150179e-02, 79.26477,50.00000,20.00000,3.635660e-10,2.843141e-09,3.639525e-07,1.815883e-11,5.627657e-12,0.80560,3
280.03,1710,-2.130229e-02, 79.21376,50.00000,20.00000,3.636593e-10,2.835991e-09,3.633402e-07,1.744293e-11,5.570679e-12,0.80559,3
280.118,1720,-1.050344e-02, 79.15845,50.00000,20.00000,3.612893e-10,2.832663e-09,3.624556e-07,1.761871e-11,5.606351e-12,0.80551,4
378.312,1730,      0.72568, 76.53319,50.00000,20.00000,3.570245e-10,2.924690e-09,3.642430e-07,8.604058e-10,7.943943e-11,0.71289,4
479.282,1740, 5.263259e-02,  0.13521,50.00000,20.00000,3.981804e-10,3.386528e-09,3.704295e-07,2.537577e-08,2.807777e-09,0.62298,4
578.767,1750,     -0.30130,  0.25665,50.00000,20.00000,4.516329e-10,3.947749e-09,3.649832e-07,4.618999e-09,5.784772e-10,0.55105,4
678.769,1760,     -0.71524,  0.38942,50.00000,20.00000,5.253703e-10,4.344502e-09,3.411481e-07,7.654246e-10,1.004218e-10,0.49651,4
778.849,1770,     -1.01839,  0.49175,50.00000,20.00000,7.119943e-10,4.825820e-09,3.278817e-07,8.463133e-11,2.974226e-11,0.45339,4