File: data/TGA/2024_01_24_001G_and_005P.csv
Baseline 100%T,,Baseline 0%T,,thf_blank,,001G_1mg_ml,,005P_1mg_ml,,005P_0.6mg_ml,,
Wavelength (nm),%T,Wavelength (nm),%T,Wavelength (nm),Abs,Wavelength (nm),Abs,Wavelength (nm),Abs,Wavelength (nm),Abs,
800,92.9379,800,0.00133842,800,0.000242697,800,0.000286834,800,0.00290194,800,0.00357344,
798,92.9255,798,0.00109402,798,0.000239175,798,0.000360482,798,0.00288328,798,0.00348565,
796,92.9292,796,0.00113844,796,0.000251011,796,0.00036214,796,0.00291291,796,0.00359615,
794,92.9554,794,0.00111508,794,0.000511756,794,0.000448032,794,0.00295615,794,0.00372155,
792,92.963,792,0.000927644,792,0.00037753,792,0.000502064,792,0.00289608,792,0.00378393,
790,92.9824,790,0.00107019,790,0.000329135,790,0.000498513,790,0.00280313,790,0.00366848,
788,93.0195,788,0.000936156,788,0.000395899,788,0.000517614,788,0.00288242,788,0.00374688,
786,93.0413,786,0.000730858,786,0.000330508,786,0.000485737,786,0.00284795,786,0.00378871,
784,93.0641,784,0.0010431,784,0.000289035,784,0.000383307,784,0.00273673,784,0.0036051,
782,93.1136,782,0.000532338,782,0.000389681,782,0.000443964,782,0.00286098,782,0.0037162,
780,93.1512,780,0.000710513,780,0.000386883,780,0.00044329,780,0.00291937,780,0.00371756,
778,93.1907,778,0.000639654,778,0.000344886,778,0.000416291,778,0.00270239,778,0.00364449,
776,93.2322,776,0.000770812,776,0.000310173,776,0.000386572,776,0.00276007,776,0.00366553,
774,93.2947,774,0.000837142,774,0.000339031,774,0.000430075,774,0.00278706,774,0.00370813,
772,93.3519,772,0.000505424,772,0.00034056,772,0.000395614,772,0.00281355,772,0.00369456,
770,93.4152,770,0.000723416,770,0.000361389,770,0.00044031,770,0.00283065,770,0.00373829,
768,93.4808,768,0.000563226,768,0.000391184,768,0.000423675,768,0.00281642,768,0.0037421,
766,93.5413,766,0.000387837,766,0.000437382,766,0.000368203,766,0.00280569,766,0.00371701,
764,93.6174,764,0.000662919,764,0.000446996,764,0.000393023,764,0.00288722,764,0.00375902,
762,93.6714,762,0.000447028,762,0.000334912,762,0.000285228,762,0.00276564,762,0.00366602,
760,93.7691,760,8.23324e-05,760,0.000414554,760,0.000402636,760,0.00285378,760,0.00371033,
758,93.8479,758,0.000463677,758,0.000358228,758,0.000415643,758,0.00279756,758,0.00372205,
756,93.9347,756,0.00047253,756,0.000336311,756,0.000423857,756,0.00287849,756,0.00369962,
754,94.014,754,0.00036587,754,0.000355197,754,0.000289398,754,0.00277114,754,0.00365109,
752,94.1082,752,0.000485183,752,0.000366001,752,0.000404994,752,0.0028288,752,0.00372743,
750,94.1886,750,0.000359563,750,0.000398387,750,0.000412818,750,0.00278591,750,0.0036252,
748,94.2883,748,0.000166806,748,0.000478325,748,0.000401807,748,0.0027764,748,0.00366767,
746,94.3805,746,0.000247622,746,0.000387375,746,0.000400874,746,0.00282611,746,0.00371753,
744,94.4659,744,0.000131941,744,0.000373307,744,0.000342321,744,0.00286264,744,0.00365389,
742,94.5452,742,3.4264e-05,742,0.000330741,742,0.000328358,742,0.00281389,742,0.00370124,
740,94.6512,740,0.000255928,740,0.000401418,740,0.000430075,740,0.00299485,740,0.00371808,
738,94.7404,738,8.88566e-05,738,0.000436372,738,0.000498384,738,0.00311093,738,0.0038459,
736,94.8203,736,0.000312431,736,0.000429635,736,0.000422613,736,0.00313943,736,0.00380803,
734,94.8924,734,0.000260429,734,0.000402947,734,0.000361519,734,0.00323858,734,0.00374633,
732,94.9832,732,0.000108898,732,0.000411367,732,0.000349057,732,0.00323213,732,0.00381678,
730,95.072,730,2.54098e-05,730,0.000420384,730,0.000417431,730,0.00338506,730,0.00381357,
728,95.172,728,0.000140281,728,0.000433573,728,0.000461274,728,0.0034601,728,0.00390247,
726,95.2634,726,3.69192e-05,726,0.000390536,726,0.000401625,726,0.00349029,726,0.00386998,
724,95.3565,724,7.6652e-05,724,0.000356156,724,0.000448628,724,0.00351955,724,0.00385405,
722,95.432,722,0.000188257,722,0.000290667,722,0.000346907,722,0.00343769,722,0.00378566,
720,95.5211,720,4.03503e-05,720,0.000314007,720,0.000320457,720,0.00338861,720,0.0037355,
718,95.6176,718,0.00012054,718,0.000339731,718,0.000355145,718,0.00335749,718,0.00385376,
716,95.7084,716,0.000186438,716,0.000328332,716,0.000322737,716,0.00337439,716,0.00381814,
714,95.8187,714,2.46924e-05,714,0.000433677,714,0.000400097,714,0.00346292,714,0.00396921,
712,95.8989,712,4.52211e-05,712,0.0004002,712,0.000353047,712,0.00337455,712,0.00381336,
710,95.9895,710,2.19834e-05,710,0.000341441,710,0.000313981,710,0.00342344,710,0.00381908,
708,96.0862,708,-9.85103e-06,708,0.000394163,708,0.000358176,708,0.0034279,708,0.00389192,
706,96.1706,706,-0.000153677,706,0.000355016,706,0.000378436,706,0.00337351,706,0.00387607,
704,96.2658,704,-4.22643e-05,704,0.000416265,704,0.000405641,704,0.00338246,704,0.0039223,
702,96.3628,702,-2.76909e-05,702,0.000313152,702,0.000325275,702,0.00341668,702,0.00390895,
700,96.4513,700,-8.09773e-05,700,0.000351052,700,0.000365508,700,0.0033415,700,0.0039358,
698,96.5403,698,-0.000160977,698,0.000355871,698,0.000421861,698,0.0033379,698,0.00396752,
696,96.6218,696,2.00393e-05,696,0.000328954,696,0.000372322,696,0.00325879,696,0.00392629,
694,96.7123,694,2.89821e-05,694,0.000375405,694,0.000408517,694,0.00323109,694,0.00395469,
692,96.8053,692,-0.00029301,692,0.000381312,692,0.000425463,692,0.00321583,692,0.0039718,
690,96.8852,690,3.26373e-05,690,0.00033942,690,0.000345353,690,0.00310794,690,0.00392287,
688,96.9751,688,9.35576e-05,688,0.00032525,688,0.000372944,688,0.00323101,688,0.0039742,
686,97.0715,686,-0.000146323,686,0.000381856,686,0.000444871,686,0.00321278,686,0.00402144,
684,97.1592,684,0.000134743,684,0.00033455,684,0.000362399,684,0.00315291,684,0.00399644,
682,97.2596,682,-0.000159798,682,0.000334835,682,0.000422639,682,0.0031727,682,0.0041546,
680,97.3524,680,-0.000276456,680,0.000371882,680,0.000421602,680,0.00319583,680,0.00414373,
678,97.4464,678,-6.33223e-05,678,0.000377659,678,0.000386442,678,0.00320407,678,0.00418102,
676,97.5382,676,-0.000253673,676,0.000422405,676,0.000422069,676,0.003317,676,0.00423821,
674,97.63,674,-0.000187775,674,0.000408932,674,0.000409191,674,0.00336722,674,0.00431395,
672,97.7348,672,1.23461e-05,672,0.000420903,672,0.000460315,672,0.00348306,672,0.00438075,
670,97.834,670,-0.000180398,670,0.000414606,670,0.000453034,670,0.00357725,670,0.00444974,
668,97.9175,668,-2.64116e-05,668,0.000389577,668,0.000399371,668,0.00363582,668,0.00445907,
666,98.021,666,-9.95665e-05,666,0.000417742,666,0.000465083,666,0.00371187,666,0.00457806,
664,98.1146,664,-0.000286748,664,0.000383748,664,0.000489676,664,0.00375625,664,0.0045565,
662,98.2146,662,-0.000201383,662,0.000364057,662,0.000441528,662,0.00364767,662,0.00448763,
660,98.3115,660,-0.000317029,660,0.000374369,660,0.000423779,660,0.0036039,660,0.00446253,
658,98.4031,658,1.35245e-05,658,0.000393775,658,0.000407585,658,0.00352959,658,0.00437113,
656,98.4849,656,-0.000290878,656,0.000440829,656,0.000456921,656,0.00347719,656,0.00436318,
654,98.5857,654,-4.12774e-05,654,0.000462881,654,0.000449121,654,0.00344729,654,0.00429826,
652,98.6609,652,-0.000166203,652,0.000461326,652,0.000494548,652,0.0034415,652,0.00431525,
650,98.743,650,-0.000323439,650,0.000420229,650,0.000452489,650,0.00342002,650,0.00428414,
648,98.8069,648,-0.000374587,648,0.000416161,648,0.000478014,648,0.0033715,648,0.00427212,
646,98.8779,646,-0.000316108,646,0.000426214,646,0.000486929,646,0.00341128,646,0.00430856,
644,98.9346,644,-0.000116081,644,0.000425152,644,0.000500353,644,0.00343584,644,0.00433923,
642,98.9896,642,-0.000480602,642,0.000458864,642,0.000531505,642,0.00341932,642,0.00429724,
640,99.0422,640,-0.000129113,640,0.000435569,640,0.00053249,640,0.003481,640,0.00436451,
638,99.0843,638,-0.000346886,638,0.000403828,638,0.000514529,638,0.00350759,638,0.00435738,
636,99.129,636,-0.000229808,636,0.000469126,636,0.000495611,636,0.00353854,636,0.00435175,
634,99.1641,634,-0.000121135,634,0.00044272,634,0.000493201,634,0.00353137,634,0.00434354,
632,99.1734,632,-0.000322664,632,0.000431008,632,0.000516059,632,0.00351952,632,0.00436545,
630,99.1951,630,-0.000477562,630,0.00038665,630,0.000529224,630,0.00350989,630,0.00430519,
628,99.1829,628,-0.000160367,628,0.000402688,628,0.00050704,628,0.003515,628,0.00434349,
626,99.2061,626,-1.69577e-06,626,0.000351777,626,0.000509787,626,0.00356248,626,0.00428799,
624,99.2312,624,-0.0002334,624,0.000387764,624,0.000519376,624,0.00363214,624,0.00431952,
622,99.2423,622,-0.000254494,622,0.000376882,622,0.000527566,622,0.00366025,622,0.0042494,
620,99.2651,620,-0.00024046,620,0.000389474,620,0.000532024,620,0.00369148,620,0.00429941,
618,99.278,618,-0.000344759,618,0.000405667,618,0.000534512,618,0.00372119,618,0.00429936,
616,99.2935,616,-0.000230512,616,0.000413777,616,0.00052119,616,0.00371025,616,0.00430503,
614,99.3323,614,-7.62178e-05,614,0.000439689,614,0.000545086,614,0.00373531,614,0.00429536,
612,99.3788,612,-5.65554e-05,612,0.000468711,612,0.000557579,612,0.00374855,612,0.00429452,
610,99.4294,610,-0.00025588,610,0.00051256,610,0.000540758,610,0.00378111,610,0.00429886,
608,99.4912,608,-5.08665e-05,608,0.000480554,608,0.000603329,608,0.00384606,608,0.00431277,
606,99.5519,606,-4.00259e-05,606,0.000479777,606,0.000582825,606,0.00390508,606,0.00429418,
604,99.6021,604,-0.000296865,604,0.000445571,604,0.000572094,604,0.00389142,604,0.00429988,
602,99.6743,602,-0.000315841,602,0.00042922,602,0.000593453,602,0.00392465,602,0.00433552,
600,99.7164,600,-0.000260672,600,0.000386054,600,0.000567429,600,0.00396736,600,0.00431544,
598,99.767,598,-0.000316236,598,0.000407455,598,0.000631663,598,0.0040605,598,0.00434302,
596,99.8044,596,-0.000288755,596,0.000460108,596,0.00061896,596,0.00407848,596,0.00431978,
594,99.8203,594,-0.000493785,594,0.000486178,594,0.000623652,594,0.00415,594,0.0043779,
592,99.8046,592,-0.000382234,592,0.000463814,592,0.000584743,592,0.00416832,592,0.00437503,
590,99.7845,590,-0.000217912,590,0.000435776,590,0.000620542,590,0.00420136,590,0.00440329,
588,99.7605,588,-0.000420388,588,0.000349135,588,0.000537363,588,0.00413842,588,0.00433458,
586,99.7618,586,-0.000474224,586,0.000451945,586,0.000609343,586,0.00418826,586,0.00436572,
584,99.7348,584,-0.000246499,584,0.000379732,584,0.00059099,584,0.00419417,584,0.00436276,
582,99.7244,582,-0.000399945,582,0.000343928,582,0.000504215,582,0.00419642,582,0.00430637,
580,99.7187,580,-0.000341937,580,0.000401237,580,0.000509268,580,0.00422488,580,0.00437149,
578,99.707,578,-0.000236096,578,0.00030336,578,0.000470862,578,0.00417799,578,0.00430114,
576,99.7055,576,-1.43975e-05,576,0.000274271,576,0.00049517,576,0.00417885,576,0.00430169,
574,99.7181,574,-0.000224122,574,0.000255777,574,0.000486955,574,0.00423594,574,0.00434135,
572,99.6999,572,-0.000285894,572,0.000199886,572,0.000414943,572,0.00420557,572,0.00430184,
570,99.7324,570,-0.000246786,570,0.000287714,570,0.000456739,570,0.0042917,570,0.00434239,
568,99.7663,568,-0.000482308,568,0.000157907,568,0.000401055,568,0.00428929,568,0.00426919,
566,99.7909,566,-0.000200796,566,0.000200119,566,0.000482524,566,0.00439317,566,0.00431212,
564,99.8064,564,-0.000242235,564,0.000178495,564,0.000418208,564,0.00441835,564,0.00430767,
562,99.8418,562,-8.01929e-05,562,0.000195638,562,0.000396029,562,0.00446219,562,0.00430231,
560,99.8712,560,-4.56001e-05,560,0.000160238,560,0.000366415,560,0.00449904,560,0.00437625,
558,99.9064,558,-0.000145704,558,0.000132505,558,0.000392816,558,0.00458703,558,0.00442474,
556,99.9412,556,-0.00021975,556,0.000120076,556,0.000423675,556,0.00466393,556,0.00443815,
554,99.9754,554,-0.000150789,554,0.000152236,554,0.000426318,554,0.00468787,554,0.00455057,
552,100.009,552,-6.75214e-05,552,0.000181136,552,0.000422043,552,0.00485244,552,0.00455033,
550,100.049,550,-0.000194952,550,0.000189423,550,0.00043746,550,0.00487759,550,0.00463638,
548,100.068,548,-0.000370004,548,0.00014338,548,0.000364653,548,0.00489605,548,0.00459595,
546,100.104,546,-0.000218899,546,0.000158865,546,0.000380146,546,0.00493543,546,0.00466571,
544,100.128,544,-0.000137945,544,0.000116451,544,0.000412404,544,0.00505012,544,0.0047098,
542,100.166,542,-0.000106251,542,0.000157053,542,0.000404268,542,0.00508883,542,0.00475677,
540,100.207,540,-0.000198421,540,0.000127585,540,0.000417197,540,0.00520484,540,0.004797,
538,100.239,538,-6.8216e-05,538,0.000107285,538,0.000394008,538,0.00526489,538,0.00492579,
536,100.277,536,-0.000211797,536,0.000102857,536,0.000409813,536,0.00543474,536,0.00494373,
534,100.318,534,-1.39534e-05,534,0.000141179,534,0.000433314,534,0.00552649,534,0.00505981,
532,100.357,532,-5.76304e-05,532,0.000149569,532,0.000434895,532,0.00564871,532,0.00510572,
530,100.389,530,-0.000143451,530,0.00012497,530,0.000418752,530,0.00571994,530,0.00513196,
528,100.423,528,-0.00025891,528,0.000150087,528,0.000401107,528,0.0058415,528,0.00527338,
526,100.453,526,-6.62531e-05,526,0.00012629,526,0.000396521,526,0.00592085,526,0.00533074,
524,100.511,524,-0.000164731,524,0.000178779,524,0.00048965,524,0.00606924,524,0.00546805,
522,100.562,522,-3.6514e-05,522,0.000123571,522,0.000456998,522,0.00622233,522,0.00554162,
520,100.586,520,-0.000271748,520,8.33349e-05,520,0.000432096,520,0.00626816,520,0.00558637,
518,100.618,518,-5.27874e-05,518,0.000102054,518,0.000390251,518,0.00640522,518,0.00566859,
516,100.645,516,-0.000167018,516,6.17942e-05,516,0.00038823,516,0.00657622,516,0.00580942,
514,100.696,514,1.49719e-05,514,0.00020952,514,0.00046555,514,0.00682465,514,0.00598622,
512,100.716,512,-0.00020923,512,0.000127404,512,0.000403802,512,0.00692269,512,0.0060416,
510,100.753,510,-0.00020509,510,0.000139082,510,0.000488484,510,0.0071305,510,0.00616898,
508,100.773,508,-0.00017585,508,9.48048e-05,508,0.000403879,508,0.00726635,508,0.00625119,
506,100.811,506,-0.000220797,506,0.00010498,506,0.000433599,506,0.00749929,506,0.00637511,
504,100.843,504,-0.000223009,504,0.000137399,504,0.000431371,504,0.00771133,504,0.0065645,
502,100.877,502,-4.03793e-05,502,0.000122613,502,0.000451246,502,0.007967,502,0.00666603,
500,100.908,500,-0.000216175,500,0.000143846,500,0.000454355,500,0.00819886,500,0.00682657,
498,100.943,498,7.01448e-06,498,0.000176785,498,0.000431034,498,0.00841715,498,0.00698237,
496,100.967,496,1.56468e-05,496,0.000137942,496,0.00039121,496,0.00859716,496,0.00709247,
494,100.999,494,-0.000112358,494,0.000120619,494,0.000427251,494,0.00885554,494,0.00726177,
492,101.039,492,-9.02402e-06,492,0.000113007,492,0.000447644,492,0.00914366,492,0.00746677,
490,101.074,490,-7.17901e-05,490,0.000121008,490,0.00040888,490,0.009472,490,0.00765239,
488,101.115,488,-0.000100623,488,6.92764e-05,488,0.000499757,488,0.00976148,488,0.00789342,
486,101.143,486,-0.000213353,486,8.80989e-05,486,0.000414865,486,0.0100765,486,0.00809257,
484,101.179,484,-0.000238163,484,0.000109978,484,0.000470603,484,0.0103867,484,0.00832102,
482,101.22,482,-0.000177916,482,0.000123338,482,0.000476796,482,0.0107944,482,0.00858433,
480,101.257,480,-6.99604e-05,480,0.000157104,480,0.000475604,480,0.0111921,480,0.00884743,
478,101.302,478,0.000201779,478,0.000178184,478,0.00052303,478,0.0117099,478,0.00918155,
476,101.337,476,-8.34829e-05,476,0.000150216,476,0.000495792,476,0.0120873,476,0.00946814,
474,101.379,474,3.4955e-05,474,0.000151433,474,0.000495377,474,0.0126641,474,0.00980744,
472,101.413,472,3.14823e-05,472,0.000102831,472,0.000505122,472,0.0132208,472,0.0101474,
470,101.451,470,-2.81642e-05,470,6.80854e-05,470,0.000521242,470,0.0137808,470,0.0104957,
468,101.492,468,-0.000225875,468,0.000117435,468,0.000525726,468,0.0144473,468,0.0109832,
466,101.541,466,-0.000167478,466,0.000109486,466,0.000583214,466,0.0152178,466,0.0115654,
464,101.577,464,-0.000213228,464,0.000124685,464,0.000566729,464,0.0159778,464,0.0120339,
462,101.622,462,-9.94739e-05,462,0.000161947,462,0.000600918,462,0.0168585,462,0.0126374,
460,101.651,460,-9.88659e-05,460,0.000108812,460,0.000626737,460,0.0177327,460,0.013263,
458,101.705,458,-0.000123658,458,0.000151874,458,0.00065655,458,0.018796,458,0.0139583,
456,101.732,456,-0.000145269,456,9.24227e-05,456,0.000698317,456,0.0198025,456,0.0146178,
454,101.77,454,-0.00018976,454,4.85907e-05,454,0.000693521,454,0.0209563,454,0.0154139,
452,101.831,452,-0.000103461,452,0.000126109,452,0.000862626,452,0.0222394,452,0.0162701,
450,101.86,450,-0.000152117,450,6.83702e-05,450,0.000873416,450,0.0234723,450,0.017108,
448,101.905,448,-3.90045e-05,448,0.000109253,448,0.00095269,448,0.0247706,448,0.0180162,
446,101.95,446,-8.34125e-05,446,9.27852e-05,446,0.00100933,446,0.0261011,446,0.0189449,
444,101.994,444,-0.000403501,444,0.000121474,444,0.00106384,444,0.0275261,444,0.0199119,
442,102.025,442,-0.000178095,442,0.000109874,442,0.0010244,442,0.0288979,442,0.0207993,
440,102.058,440,-0.000308363,440,0.000154748,440,0.00105515,440,0.0303351,440,0.021816,
438,102.069,438,-0.000272836,438,0.000115519,438,0.00108616,438,0.0318793,438,0.0228609,
436,102.091,436,-0.000147921,436,0.000129889,436,0.00105964,436,0.0334844,436,0.0239249,
434,102.104,434,-0.00062021,434,0.000154023,434,0.0011042,434,0.0352664,434,0.0251786,
432,102.127,432,-0.00025171,432,0.000150424,432,0.00114536,432,0.0371045,432,0.0264227,
430,102.118,430,-0.000232993,430,7.95031e-05,430,0.00111403,430,0.0391252,430,0.0278012,
428,102.14,428,-5.88985e-05,428,7.71988e-05,428,0.00113723,428,0.0412705,428,0.029288,
426,102.146,426,-0.000338107,426,6.81631e-05,426,0.00115857,426,0.0435705,426,0.0308391,
424,102.163,424,-0.000220904,424,4.12901e-05,424,0.0011819,424,0.045932,424,0.0324059,
422,102.163,422,-0.000221296,422,3.54652e-05,422,0.00120721,422,0.0483542,422,0.0341231,
420,102.146,420,-0.000325163,420,8.10565e-05,420,0.00121492,420,0.0507776,420,0.0357138,
418,102.151,418,-0.000143953,418,8.53544e-05,418,0.00128151,418,0.0531887,418,0.0373332,
416,102.144,416,-0.000154559,416,8.68302e-05,416,0.00131464,416,0.0554296,416,0.0388057,
414,102.137,414,-0.000428915,414,6.23638e-05,414,0.00137228,414,0.0576025,414,0.040257,
412,102.121,412,-0.000222983,412,9.19826e-05,412,0.00132679,412,0.059638,412,0.0416175,
410,102.095,410,-0.000392964,410,8.88497e-05,410,0.0013417,410,0.0615718,410,0.0429789,
408,102.095,408,-0.000309098,408,1.6179e-05,408,0.00139786,408,0.0635113,408,0.0442684,
406,102.08,406,-9.42797e-05,406,9.10505e-05,406,0.00142087,406,0.0655794,406,0.0456623,
404,102.061,404,-0.000280484,404,0.000109382,404,0.0015063,404,0.067606,404,0.0471235,
402,102.045,402,-0.000282178,402,0.000130511,402,0.00153978,402,0.0697953,402,0.0485859,
400,102.046,400,-1.2411e-06,400,0.000116399,400,0.00157205,400,0.0719732,400,0.0500768,
398,102.038,398,-9.49918e-05,398,0.000183803,398,0.00168152,398,0.074284,398,0.0516734,
396,102.011,396,-0.000316052,396,7.49205e-05,396,0.00174675,396,0.0765021,396,0.0532154,
394,102.004,394,-0.00028718,394,0.000114716,394,0.00173999,394,0.0787721,394,0.0547136,
392,101.998,392,-0.000265276,392,5.97489e-05,392,0.00184718,392,0.0809808,392,0.0562231,
390,101.995,390,-0.00019204,390,0.00010076,390,0.00188457,390,0.0831301,390,0.05776,
388,101.949,388,-0.000213661,388,8.27394e-05,388,0.00194926,388,0.0853811,388,0.0592786,
386,101.956,386,-6.60038e-05,386,0.000136259,386,0.00208504,386,0.0878247,386,0.0609528,
384,101.911,384,-0.000260657,384,0.000140428,384,0.00222151,384,0.0902231,384,0.0626359,
382,101.886,382,-6.84748e-05,382,0.000124115,382,0.00220429,382,0.0926515,382,0.0643681,
380,101.805,380,-0.000336226,380,8.56392e-05,380,0.00230751,380,0.0952231,380,0.0660652,
378,101.774,378,-0.000221837,378,6.9846e-05,378,0.00236068,378,0.0977912,378,0.0678556,
376,101.708,376,-0.000204008,376,8.39563e-05,376,0.00245694,376,0.100401,376,0.0697668,
374,101.648,374,-0.000258507,374,1.26325e-05,374,0.00255369,374,0.103009,374,0.0716145,
372,101.586,372,-0.00020009,372,5.77037e-05,372,0.00261392,372,0.105677,372,0.0734726,
370,101.533,370,-0.000260579,370,5.02735e-05,370,0.00269093,370,0.108137,370,0.0752454,
368,101.457,368,-0.000253321,368,5.9257e-05,368,0.00282804,368,0.110632,368,0.0769482,
366,101.39,366,-0.000368375,366,1.21664e-06,366,0.00288727,366,0.113356,366,0.0788095,
364,101.347,364,-0.000325973,364,8.51214e-05,364,0.00299058,364,0.115925,364,0.0806158,
362,101.252,362,-0.000134148,362,9.118e-05,362,0.00302316,362,0.118278,362,0.0822608,
360,101.18,360,-0.000295068,360,7.48111e-06,360,0.0029886,360,0.12042,360,0.08381,
358,101.095,358,-0.000193128,358,5.95159e-05,358,0.00324051,358,0.123112,358,0.0857538,
356,100.98,356,-0.000385063,356,-3.85684e-05,356,0.00317784,356,0.126022,356,0.087774,
354,100.876,354,-0.000503669,354,9.09987e-05,354,0.00335963,354,0.12938,354,0.090033,
352,100.761,352,-0.000275097,352,6.86032e-05,352,0.00338058,352,0.132567,352,0.0923062,
350,100.646,350,-0.000186731,350,5.55548e-05,350,0.00351349,350,0.135956,350,0.0947774,
348,100.827,348,-0.000501769,348,0.000227002,348,0.00343205,348,0.129815,348,0.0904286,
346,100.709,346,2.69761e-05,346,-0.000108811,346,0.00339813,346,0.132958,346,0.0929612,
344,100.683,344,-0.000229099,344,-0.000192911,344,0.00344129,344,0.135706,344,0.0947417,
342,100.617,342,-0.000484136,342,1.76028e-05,342,0.00351294,342,0.139004,342,0.0970109,
340,100.585,340,-2.72603e-05,340,0.000115881,340,0.00373375,340,0.142584,340,0.099703,
338,100.558,338,-0.00067659,338,-0.000135414,338,0.0034392,338,0.145353,338,0.101802,
336,100.583,336,-0.000211332,336,0.000181524,336,0.00360904,336,0.149854,336,0.104974,
334,100.542,334,-0.000399429,334,-3.67565e-05,334,0.00358135,334,0.154672,334,0.108621,
332,100.528,332,-0.000263294,332,1.48329e-05,332,0.00361883,332,0.160595,332,0.113086,
330,100.561,330,-0.000298324,330,4.19632e-05,330,0.0038833,330,0.167284,330,0.117848,
328,100.552,328,-0.000302701,328,7.33152e-05,328,0.00400255,328,0.17368,328,0.122639,
326,100.586,326,-0.000126457,326,-8.07635e-06,326,0.00416989,326,0.178654,326,0.126463,
324,100.586,324,-0.000205864,324,3.82353e-05,324,0.00424786,324,0.182225,324,0.129285,
322,100.607,322,-0.000371565,322,0.00026694,322,0.00414626,322,0.185784,322,0.131768,
320,100.598,320,-0.000401645,320,-4.41075e-05,320,0.00388314,320,0.189843,320,0.134841,
318,100.605,318,-0.000299001,318,0.000185046,318,0.00406902,318,0.195087,318,0.138899,
316,100.604,316,-0.000147141,316,5.54254e-05,316,0.00408846,316,0.201545,316,0.143681,
314,100.599,314,-0.000460801,314,1.42116e-05,314,0.00408216,314,0.208499,314,0.149113,
312,100.573,312,-0.000544347,312,3.08831e-05,312,0.00417316,312,0.215821,312,0.154768,
310,100.592,310,-0.000547342,310,-2.06565e-05,310,0.00419848,310,0.224129,310,0.161199,
308,100.574,308,-0.000365804,308,0.00025601,308,0.00438263,308,0.234013,308,0.169051,
306,100.508,306,-0.000260962,306,0.000116425,306,0.00463224,306,0.244464,306,0.177617,
304,100.497,304,-0.000127879,304,-0.000108552,304,0.00484759,304,0.254248,304,0.185633,
302,100.556,302,-0.000231526,302,1.6412e-05,302,0.00585501,302,0.262028,302,0.192316,
300,100.838,300,-0.000239945,300,-0.000118749,300,0.00681789,300,0.267453,300,0.197297,
298,101.769,298,-0.000403456,298,0.000192997,298,0.00918694,298,0.27049,298,0.201034,
296,104.181,296,-0.000263075,296,0.00022884,296,0.0127048,296,0.269038,296,0.201848,
294,110.29,294,-0.000706563,294,0.000507402,294,0.0158652,294,0.252157,294,0.192324,
292,123.539,292,-0.000925725,292,0.000971162,292,0.0152199,292,0.200267,292,0.157217,
290,145.093,290,-0.000695257,290,0.00149292,290,0.00994096,290,0.109504,290,0.0900486,
288,161.869,288,-0.000360402,288,0.00219391,288,0.00404691,288,0.0351385,288,0.0313524,
286,166.33,286,-0.000316343,286,0.00217255,286,0.00151604,286,0.0109969,286,0.0116367,
284,166.776,284,-4.92916e-05,284,0.00218639,284,0.00115719,284,0.00721566,284,0.00836105,
282,166.857,282,-2.58022e-05,282,0.00212822,282,0.00126754,282,0.00694765,282,0.00827561,
280,166.969,280,-0.000214225,280,0.00181841,280,0.00131337,280,0.00656831,280,0.0079115,
278,166.893,278,8.41824e-06,278,0.00198956,278,0.00140719,278,0.00672397,278,0.00801538,
276,166.389,276,0.000169648,276,0.00208668,276,0.00175434,276,0.0071225,276,0.00860656,
274,165.223,274,6.8289e-05,274,0.00209175,274,0.00339521,274,0.00928745,274,0.0106461,
272,163.289,272,-0.000148329,272,0.00216323,272,0.00810549,272,0.0128669,272,0.0144157,
270,160.386,270,-0.000114382,270,0.00202792,270,0.0162562,270,0.0194603,270,0.0211105,
268,155.797,268,-8.82082e-05,268,0.00193933,268,0.0273262,268,0.030029,268,0.0316276,
266,149.545,266,8.55873e-05,266,0.00150817,266,0.0432152,266,0.0464498,266,0.0482228,
264,142.615,264,-4.63595e-06,264,0.00119878,264,0.0660825,264,0.0692913,264,0.0708707,
262,136.032,262,0.000149796,262,0.001255,262,0.0932925,262,0.096597,262,0.0982592,
260,129.896,260,-0.000196812,260,0.00127855,260,0.123043,260,0.126426,260,0.12789,
258,124.504,258,1.86367e-05,258,0.00111704,258,0.154716,258,0.157974,258,0.159605,
256,120.552,256,-0.000199721,256,0.000799188,256,0.184361,256,0.187938,256,0.189525,
254,117.957,254,-0.000192501,254,0.000693054,254,0.209881,254,0.21356,254,0.215146,
252,116.439,252,-0.00027955,252,0.000736536,252,0.226756,252,0.231592,252,0.233392,
250,115.84,250,-0.000304263,250,0.000602059,250,0.234834,250,0.242277,250,0.24384,
248,116.135,248,-0.000431343,248,0.000655306,248,0.23704,248,0.245752,248,0.247262,
246,118.297,246,-0.000324899,246,0.00068945,246,0.223899,246,0.237546,246,0.239148,
244,124.132,244,-0.000506382,244,0.000875854,244,0.193072,244,0.208617,244,0.210145,
242,135.321,242,-0.000531601,242,0.00127042,242,0.140271,242,0.153719,242,0.1554,
240,150.781,240,-0.000389365,240,0.00165093,240,0.0705842,240,0.0801145,240,0.0818684,
238,161.116,238,-0.000445865,238,0.00191717,238,0.0186705,238,0.0217711,238,0.0235804,
236,162.628,236,-0.000374508,236,0.00231631,236,0.0025453,236,0.00337878,236,0.00506182,
234,161.747,234,1.48404e-05,234,0.00180832,234,0.000551618,234,0.00075518,234,0.0026027,
232,160.528,232,-0.000191534,232,0.001854,232,0.000332348,232,0.000632414,232,0.00227753,
230,159.872,230,-8.19121e-05,230,0.00197235,230,0.000624871,230,0.000529121,230,0.00237432,
228,158.869,228,-5.85154e-05,228,0.0020582,228,0.000576475,228,0.000683876,228,0.00247777,
226,157.755,226,-0.000300828,226,0.00217994,226,0.000732491,226,0.00104659,226,0.00288792,
224,156.396,224,-0.000465548,224,0.00214,224,0.000637703,224,0.00103818,224,0.0029537,
222,154.76,222,-0.00025143,222,0.00209588,222,0.000465757,222,0.00109091,222,0.00292419,
220,152.928,220,-0.000426245,220,0.00206082,220,0.000575049,220,0.00125378,220,0.00312397,
218,150.834,218,-0.000202462,218,0.00185033,218,0.000680998,218,0.00147534,218,0.00331359,
216,149.172,216,-0.000214165,216,0.00205791,216,0.000961381,216,0.0022308,216,0.004024,
214,147.977,214,-0.000170669,214,0.0020571,214,0.000955051,214,0.00280246,214,0.00459436,
212,147.1,212,-0.000204031,212,0.00218862,212,0.000884544,212,0.0034482,212,0.00527506,
210,146.41,210,-0.000493523,210,0.00240758,210,0.00109605,210,0.00420852,210,0.00618702,
208,144.914,208,-0.000697489,208,0.00192341,208,0.000970643,208,0.00506751,208,0.00653239,
206,142.766,206,-0.000269657,206,0.001847,206,0.00101768,206,0.00544533,206,0.00701544,
204,140.276,204,-0.000782791,204,0.00195329,204,0.00144433,204,0.006176461,204,0.00810161,
202,136.969,202,-0.000517502,202,0.00222281,202,0.0018437,202,0.00897231,202,0.0101926,
200,133.71,200,-0.000813844,200,0.00273522,200,0.00309287,200,0.0118213,200,0.0134476,
199,130.096,,,,,,,,,,,

Baseline 100%T,
Baseline 100%T
Collection Time: 2024-01-24 1:21:39 PM
Operator Name  :
Scan Version 6.4.0.1610
Parameter List :
Instrument  Cary 7000
Instrument Version  3.07
Method Log     :
Method Name    :
Date/Time stamp: 2024-01-24 1:19:40 PM
Method Modifications:
ConcentrationReportSelected Changed: 2024-01-24 1:19:41 PM, Old:Choice 0, New:Choice 1
ConcentrationReportSelected Changed: 2024-01-24 1:19:41 PM, Old:ON, New:Choice 0
MCAReportSelected Changed: 2024-01-24 1:19:41 PM, Old:Choice 0, New:Choice 1
MCAReportSelected Changed: 2024-01-24 1:19:41 PM, Old:ON, New:Choice 0
UVVIS Scan Rate nm Changed: 2024-01-24 1:20:57 PM, Old:  602.007, New:  600.000
NIR Scan Rate nm Changed: 2024-01-24 1:20:57 PM, Old:    0.004, New:   12.000
Baseline Correction Changed: 2024-01-24 1:20:57 PM, Old:0, New:2
Sipper Type Changed: 2024-01-24 1:20:57 PM, Old:Internal RSA, New:External sipper
End Method Modifications
<Current Wavelength> , 199.000
<SBW (nm)> , 2.00
<Energy> , 95.50
<Slit Height> , Full

Baseline 0%T,
Baseline 0%T
Collection Time: 2024-01-24 1:23:25 PM
Operator Name  :
Scan Version 6.4.0.1610
Parameter List :
Instrument  Cary 7000
Instrument Version  3.07
Method Log     :
Method Name    :
Date/Time stamp: 2024-01-24 1:19:40 PM
Method Modifications:
ConcentrationReportSelected Changed: 2024-01-24 1:19:41 PM, Old:Choice 0, New:Choice 1
ConcentrationReportSelected Changed: 2024-01-24 1:19:41 PM, Old:ON, New:Choice 0
MCAReportSelected Changed: 2024-01-24 1:19:41 PM, Old:Choice 0, New:Choice 1
MCAReportSelected Changed: 2024-01-24 1:19:41 PM, Old:ON, New:Choice 0
UVVIS Scan Rate nm Changed: 2024-01-24 1:20:57 PM, Old:  602.007, New:  600.000
NIR Scan Rate nm Changed: 2024-01-24 1:20:57 PM, Old:    0.004, New:   12.000
Baseline Correction Changed: 2024-01-24 1:20:57 PM, Old:0, New:2
Sipper Type Changed: 2024-01-24 1:20:57 PM, Old:Internal RSA, New:External sipper
End Method Modifications
<Current Wavelength> , 200.000
<SBW (nm)> , 2.00
<Energy> , 104.71
<Slit Height> , Full

thf_blank,
thf_blank
Collection Time: 2024-01-24 1:25:30 PM
Operator Name  :
Scan Version 6.4.0.1610
Parameter List :
Instrument  Cary 7000
Instrument Version  3.07
Method Log     :
Method Name    :
Date/Time stamp: 2024-01-24 1:19:40 PM
Method Modifications:
ConcentrationReportSelected Changed: 2024-01-24 1:19:41 PM, Old:Choice 0, New:Choice 1
ConcentrationReportSelected Changed: 2024-01-24 1:19:41 PM, Old:ON, New:Choice 0
MCAReportSelected Changed: 2024-01-24 1:19:41 PM, Old:Choice 0, New:Choice 1
MCAReportSelected Changed: 2024-01-24 1:19:41 PM, Old:ON, New:Choice 0
UVVIS Scan Rate nm Changed: 2024-01-24 1:20:57 PM, Old:  602.007, New:  600.000
NIR Scan Rate nm Changed: 2024-01-24 1:20:57 PM, Old:    0.004, New:   12.000
Baseline Correction Changed: 2024-01-24 1:20:57 PM, Old:0, New:2
Sipper Type Changed: 2024-01-24 1:20:57 PM, Old:Internal RSA, New:External sipper
End Method Modifications
<Current Wavelength> , 200.000
<SBW (nm)> , 2.00
<Energy> , 87.10
<Slit Height> , Full

001G_1mg_ml,
001G_1mg_ml
Collection Time: 2024-01-24 1:27:52 PM
Operator Name  :
Scan Version 6.4.0.1610
Parameter List :
Instrument  Cary 7000
Instrument Version  3.07
Method Log     :
Method Name    :
Date/Time stamp: 2024-01-24 1:19:40 PM
Method Modifications:
ConcentrationReportSelected Changed: 2024-01-24 1:19:41 PM, Old:Choice 0, New:Choice 1
ConcentrationReportSelected Changed: 2024-01-24 1:19:41 PM, Old:ON, New:Choice 0
MCAReportSelected Changed: 2024-01-24 1:19:41 PM, Old:Choice 0, New:Choice 1
MCAReportSelected Changed: 2024-01-24 1:19:41 PM, Old:ON, New:Choice 0
UVVIS Scan Rate nm Changed: 2024-01-24 1:20:57 PM, Old:  602.007, New:  600.000
NIR Scan Rate nm Changed: 2024-01-24 1:20:57 PM, Old:    0.004, New:   12.000
Baseline Correction Changed: 2024-01-24 1:20:57 PM, Old:0, New:2
Sipper Type Changed: 2024-01-24 1:20:57 PM, Old:Internal RSA, New:External sipper
End Method Modifications
<Current Wavelength> , 199.000
<SBW (nm)> , 2.00
<Energy> , 87.10
<Slit Height> , Full

005P_1mg_ml,
005P_1mg_ml
Collection Time: 2024-01-24 1:31:22 PM
Operator Name  :
Scan Version 6.4.0.1610
Parameter List :
Instrument  Cary 7000
Instrument Version  3.07
Method Log     :
Method Name    :
Date/Time stamp: 2024-01-24 1:19:40 PM
Method Modifications:
ConcentrationReportSelected Changed: 2024-01-24 1:19:41 PM, Old:Choice 0, New:Choice 1
ConcentrationReportSelected Changed: 2024-01-24 1:19:41 PM, Old:ON, New:Choice 0
MCAReportSelected Changed: 2024-01-24 1:19:41 PM, Old:Choice 0, New:Choice 1
MCAReportSelected Changed: 2024-01-24 1:19:41 PM, Old:ON, New:Choice 0
UVVIS Scan Rate nm Changed: 2024-01-24 1:20:57 PM, Old:  602.007, New:  600.000
NIR Scan Rate nm Changed: 2024-01-24 1:20:57 PM, Old:    0.004, New:   12.000
Baseline Correction Changed: 2024-01-24 1:20:57 PM, Old:0, New:2
Sipper Type Changed: 2024-01-24 1:20:57 PM, Old:Internal RSA, New:External sipper
End Method Modifications
<Current Wavelength> , 199.000
<SBW (nm)> , 2.00
<Energy> , 87.10
<Slit Height> , Full

005P_0.6mg_ml,
005P_0.6mg_ml
Collection Time: 2024-01-24 1:33:11 PM
Operator Name  :
Scan Version 6.4.0.1610
Parameter List :
Instrument  Cary 7000
Instrument Version  3.07
Method Log     :
Method Name    :
Date/Time stamp: 2024-01-24 1:19:40 PM
Method Modifications:
ConcentrationReportSelected Changed: 2024-01-24 1:19:41 PM, Old:Choice 0, New:Choice 1
ConcentrationReportSelected Changed: 2024-01-24 1:19:41 PM, Old:ON, New:Choice 0
MCAReportSelected Changed: 2024-01-24 1:19:41 PM, Old:Choice 0, New:Choice 1
MCAReportSelected Changed: 2024-01-24 1:19:41 PM, Old:ON, New:Choice 0
UVVIS Scan Rate nm Changed: 2024-01-24 1:20:57 PM, Old:  602.007, New:  600.000
NIR Scan Rate nm Changed: 2024-01-24 1:20:57 PM, Old:    0.004, New:   12.000
Baseline Correction Changed: 2024-01-24 1:20:57 PM, Old:0, New:2
Sipper Type Changed: 2024-01-24 1:20:57 PM, Old:Internal RSA, New:External sipper
End Method Modifications
<Current Wavelength> , 200.000
<SBW (nm)> , 2.00
<Energy> , 87.10
<Slit Height> , Full