File: data/TGA/ExpDat_2024_02_16_SL_005J2-FLASH_PS_280C_isotherm_.csv
#EXPORTTYPE:                 ,DATA SINGLE
#FILE:                       ,2024_02_16_SL_005J2-FLASH_PS_280C_isotherm_1pt_min_SCB_with_100C_stabilization.ngb-ss5
#FORMAT:                     ,NETZSCH5
#FTYPE:                      ,ANSI
#IDENTITY:                   ,PS
#DECIMAL:                    ,POINT
#SEPARATOR:                  ,COMMA
#MTYPE:                      ,TG
#INSTRUMENT:                 ,NETZSCH STA 449F5
#PROJECT:                    ,2024_02_16_SL_005
#DATE/TIME:                  ,2/16/2024 8:45:27 AM (UTC-5)
#CORR. FILE:                 ,
#TEMPCAL:                    ,28-06-2023 13:26
#SENSITIVITY:                ,28-06-2023 13:53
#LABORATORY:                 ,DS
#OPERATOR:                   ,Stanley
#REMARK:                     ,
#SAMPLE:                     ,005J2-FLASH
#SAMPLE MASS /mg:            ,5.49
#MATERIAL:                   ,
#REFERENCE:                  ,
#REFERENCE MASS /mg:         ,0
#TYPE OF CRUCIBLE:           ,Al2O3 85 µl, open
#SAMPLE CRUCIBLE MASS /mg:   ,0
#REFERENCE CRUCIBLE MASS /mg:,0
#DSC RANGE /µV:              ,5000
#TG RANGE /mg:               ,35000
#TAU-R:                      ,---
#CORR. CODE:                 ,000
#EXO:                        ,-1
#RANGE:                      ,30°C....800°C/0.0....10.0K/min
#SEGMENT:                    ,S1-5/5
#SEG. 1:                     ,30°C/10.0(K/min)/100°C
#SEG. 2:                     ,100°C/00:10/100°C
#SEG. 3:                     ,100°C/10.0(K/min)/350°C
#SEG. 4:                     ,350°C/04:00/350°C
#SEG. 5:                     ,350°C/10.0(K/min)/800°C

##Temp./°C,Time/min,Mass/%,Segment
 31.91200,  0.00000,100,1
 31.90300,  0.30000,100,1
 32.02600,  0.60000,100.359,1
 32.35800,  0.90000,100.855,1
 32.96100,  1.20000,101.453,1
 33.82900,  1.50000,102.112,1
 34.95000,  1.80000,102.687,1
 36.28900,  2.10000,103.258,1
 37.82900,  2.40000,103.767,1
 39.54600,  2.70000,104.237,1
 41.42000,  3.00000,104.678,1
 43.48800,  3.30000,105.094,1
 45.73100,  3.60000,105.541,1
 48.18600,  3.90000,105.988,1
 50.83900,  4.20000,106.411,1
 53.65300,  4.50000,106.796,1
 56.65400,  4.80000,107.181,1
 59.81500,  5.10000,107.528,1
 63.10500,  5.40000,107.814,1
 66.49600,  5.70000,108.088,1
 70.00900,  6.00000,108.327,1
 73.59500,  6.30000,108.55,1
 77.26300,  6.60000,108.717,1
 80.99700,  6.90000,108.929,1
 84.72500,  7.20000,109.057,2
 88.25300,  7.50000,109.032,2
 91.45600,  7.80000,108.842,2
 94.28000,  8.10000,108.544,2
 96.69300,  8.40000,108.185,2
 98.78600,  8.70000,107.845,2
100.601,  9.00000,107.554,2
102.235,  9.30000,107.324,2
103.697,  9.60000,107.157,2
105.052,  9.90000,106.998,2
106.289, 10.20000,106.842,2
107.379, 10.50000,106.689,2
108.328, 10.80000,106.491,2
109.135, 11.10000,106.322,2
109.798, 11.40000,106.12,2
110.301, 11.70000,105.937,2
110.69, 12.00000,105.762,2
110.973, 12.30000,105.58,2
111.136, 12.60000,105.43,2
111.243, 12.90000,105.246,2
111.244, 13.20000,105.098,2
111.184, 13.50000,104.97,2
111.063, 13.80000,104.828,2
110.885, 14.10000,104.736,2
110.662, 14.40000,104.579,2
110.415, 14.70000,104.496,2
110.108, 15.00000,104.371,2
109.775, 15.30000,104.284,2
109.417, 15.60000,104.193,2
109.033, 15.90000,104.099,2
108.638, 16.20000,104.016,2
108.217, 16.50000,103.942,2
107.811, 16.80000,103.893,2
107.398, 17.10000,103.818,3
107.078, 17.40000,103.856,3
107.052, 17.70000,104.154,3
107.409, 18.00000,104.599,3
108.19, 18.30000,105.111,3
109.289, 18.60000,105.591,3
110.66, 18.90000,105.957,3
112.216, 19.20000,106.308,3
113.922, 19.50000,106.578,3
115.773, 19.80000,106.806,3
117.808, 20.10000,107.037,3
120.035, 20.40000,107.309,3
122.453, 20.70000,107.546,3
125.084, 21.00000,107.816,3
127.895, 21.30000,108.051,3
130.874, 21.60000,108.292,3
133.974, 21.90000,108.455,3
137.193, 22.20000,108.614,3
140.515, 22.50000,108.799,3
143.917, 22.80000,108.933,3
147.392, 23.10000,109.059,3
150.913, 23.40000,109.182,3
154.503, 23.70000,109.261,3
158.108, 24.00000,109.339,3
161.742, 24.30000,109.413,3
165.38, 24.60000,109.487,3
169.035, 24.90000,109.549,3
172.68, 25.20000,109.638,3
176.334, 25.50000,109.64,3
179.944, 25.80000,109.695,3
183.565, 26.10000,109.72,3
187.173, 26.40000,109.745,3
190.748, 26.70000,109.764,3
194.301, 27.00000,109.776,3
197.828, 27.30000,109.807,3
201.306, 27.60000,109.85,3
204.768, 27.90000,109.85,3
208.191, 28.20000,109.875,3
211.582, 28.50000,109.875,3
214.928, 28.80000,109.899,3
218.259, 29.10000,109.881,3
221.544, 29.40000,109.906,3
224.814, 29.70000,109.881,3
228.034, 30.00000,109.877,3
231.263, 30.30000,109.906,3
234.449, 30.60000,109.881,3
237.613, 30.90000,109.881,3
240.766, 31.20000,109.881,3
243.891, 31.50000,109.881,3
247, 31.80000,109.856,3
250.091, 32.10000,109.85,3
253.18, 32.40000,109.838,3
256.253, 32.70000,109.807,3
259.296, 33.00000,109.782,3
262.341, 33.30000,109.782,3
265.38, 33.60000,109.794,3
268.407, 33.90000,109.794,3
271.417, 34.20000,109.77,3
274.43, 34.50000,109.77,3
277.429, 34.80000,109.77,3
280.418, 35.10000,109.764,3
283.396, 35.40000,109.739,3
286.399, 35.70000,109.726,3
289.375, 36.00000,109.695,3
292.354, 36.30000,109.669,3
295.334, 36.60000,109.642,3
298.297, 36.90000,109.642,3
301.274, 37.20000,109.568,3
304.243, 37.50000,109.516,3
307.221, 37.80000,109.491,3
310.191, 38.10000,109.442,3
313.159, 38.40000,109.393,3
316.125, 38.70000,109.318,3
319.111, 39.00000,109.244,3
322.079, 39.30000,109.17,3
325.043, 39.60000,109.069,3
328.018, 39.90000,108.995,3
330.978, 40.20000,108.896,3
333.947, 40.50000,108.791,3
336.913, 40.80000,108.659,3
339.877, 41.10000,108.56,3
342.856, 41.40000,108.432,3
345.817, 41.70000,108.276,3
348.789, 42.00000,108.144,4
351.338, 42.30000,107.919,4
352.872, 42.60000,107.587,4
353.673, 42.90000,107.202,4
354.128, 43.20000,106.848,4
354.502, 43.50000,106.497,4
354.909, 43.80000,106.159,4
355.334, 44.10000,105.889,4
355.698, 44.40000,105.585,4
355.952, 44.70000,105.234,4
356.074, 45.00000,104.907,4
356.072, 45.30000,104.597,4
355.984, 45.60000,104.292,4
355.853, 45.90000,104,4
355.693, 46.20000,103.645,4
355.516, 46.50000,103.334,4
355.324, 46.80000,102.986,4
355.11, 47.10000,102.679,4
354.893, 47.40000,102.325,4
354.668, 47.70000,101.995,4
354.423, 48.00000,101.669,4
354.193, 48.30000,101.331,4
353.967, 48.60000,101.012,4
353.737, 48.90000,100.678,4
353.522, 49.20000,100.346,4
353.302, 49.50000,100.078,4
353.097, 49.80000, 99.84135,4
352.91, 50.10000, 99.52204,4
352.722, 50.40000, 99.28707,4
352.541, 50.70000, 98.98015,4
352.38, 51.00000, 98.71840,4
352.225, 51.30000, 98.46284,4
352.071, 51.60000, 98.16812,4
351.94, 51.90000, 97.91056,4
351.813, 52.20000, 97.62823,4
351.694, 52.50000, 97.35829,4
351.577, 52.80000, 97.09053,4
351.468, 53.10000, 96.81439,4
351.361, 53.40000, 96.57122,4
351.256, 53.70000, 96.28270,4
351.181, 54.00000, 96.04973,4
351.106, 54.30000, 95.75719,4
351.021, 54.60000, 95.48106,4
350.953, 54.90000, 95.22969,4
350.879, 55.20000, 94.96594,4
350.814, 55.50000, 94.70838,4
350.766, 55.80000, 94.45082,4
350.699, 56.10000, 94.19107,4
350.645, 56.40000, 93.94171,4
350.597, 56.70000, 93.69454,4
350.574, 57.00000, 93.43078,4
350.533, 57.30000, 93.15246,4
350.482, 57.60000, 92.91967,4
350.458, 57.90000, 92.66831,4
350.408, 58.20000, 92.40856,4
350.379, 58.50000, 92.15920,4
350.37, 58.80000, 91.93461,4
350.338, 59.10000, 91.67086,4
350.315, 59.40000, 91.41330,4
350.291, 59.70000, 91.17632,4
350.267, 60.00000, 90.94153,4
350.25, 60.30000, 90.70455,4
350.232, 60.60000, 90.43661,4
350.215, 60.90000, 90.22022,4
350.198, 61.20000, 89.95228,4
350.185, 61.50000, 89.73188,4
350.179, 61.80000, 89.48051,4
350.169, 62.10000, 89.29089,4
350.154, 62.40000, 89.02714,4
350.15, 62.70000, 88.76539,4
350.124, 63.00000, 88.53461,4
350.121, 63.30000, 88.28525,4
350.123, 63.60000, 88.04408,4
350.114, 63.90000, 87.85464,4
350.105, 64.20000, 87.58670,4
350.098, 64.50000, 87.38270,4
350.101, 64.80000, 87.11275,4
350.092, 65.10000, 86.89016,4
350.086, 65.40000, 86.64699,4
350.086, 65.70000, 86.39763,4
350.083, 66.00000, 86.14827,4
350.082, 66.30000, 85.89690,4
350.071, 66.60000, 85.68670,4
350.069, 66.90000, 85.45392,4
350.071, 67.20000, 85.23953,4
350.065, 67.50000, 85.01093,4
350.057, 67.80000, 84.79035,4
350.052, 68.10000, 84.59053,4
350.058, 68.40000, 84.35974,4
350.058, 68.70000, 84.10619,4
350.056, 69.00000, 83.86302,4
350.051, 69.30000, 83.65701,4
350.05, 69.60000, 83.41184,4
350.036, 69.90000, 83.20164,4
350.039, 70.20000, 82.99964,4
350.039, 70.50000, 82.75027,4
350.025, 70.80000, 82.53188,4
350.038, 71.10000, 82.31767,4
350.033, 71.40000, 82.08689,4
350.031, 71.70000, 81.89107,4
350.03, 72.00000, 81.64590,4
350.042, 72.30000, 81.43770,4
350.03, 72.60000, 81.21712,4
350.037, 72.90000, 80.97195,4
350.034, 73.20000, 80.77413,4
350.035, 73.50000, 80.55993,4
350.035, 73.80000, 80.35173,4
350.03, 74.10000, 80.12514,4
350.027, 74.40000, 79.89836,4
350.042, 74.70000, 79.67577,4
350.031, 75.00000, 79.46157,4
350.031, 75.30000, 79.24317,4
350.04, 75.60000, 79.03078,4
350.032, 75.90000, 78.83716,4
350.035, 76.20000, 78.62077,4
350.032, 76.50000, 78.40437,4
350.034, 76.80000, 78.18179,4
350.031, 77.10000, 77.99435,4
350.032, 77.40000, 77.76357,4
350.025, 77.70000, 77.56976,4
350.027, 78.00000, 77.34317,4
350.029, 78.30000, 77.14736,4
350.022, 78.60000, 76.92896,4
350.027, 78.90000, 76.70856,4
350.018, 79.20000, 76.49836,4
350.021, 79.50000, 76.30874,4
350.021, 79.80000, 76.09235,4
350.031, 80.10000, 75.90692,4
350.017, 80.40000, 75.70492,4
350.018, 80.70000, 75.47614,4
350.013, 81.00000, 75.28251,4
350.018, 81.30000, 75.06612,4
350.027, 81.60000, 74.90128,4
350.029, 81.90000, 74.68707,4
350.033, 82.20000, 74.44171,4
350.025, 82.50000, 74.28306,4
350.02, 82.80000, 74.08944,4
350.029, 83.10000, 73.83588,4
350.021, 83.40000, 73.67723,4
350.019, 83.70000, 73.45464,4
350.02, 84.00000, 73.26721,4
350.017, 84.30000, 73.05282,4
350.021, 84.60000, 72.86940,4
350.015, 84.90000, 72.68816,4
350.025, 85.20000, 72.48415,4
350.018, 85.50000, 72.29454,4
350.021, 85.80000, 72.10492,4
350.019, 86.10000, 71.88251,4
350.025, 86.40000, 71.69290,4
350.01, 86.70000, 71.50947,4
350.016, 87.00000, 71.29107,4
350.016, 87.30000, 71.12204,4
350.014, 87.60000, 70.94281,4
350.02, 87.90000, 70.73661,4
350.014, 88.20000, 70.56976,4
350.017, 88.50000, 70.37614,4
350.013, 88.80000, 70.18233,4
350.031, 89.10000, 69.99490,4
350.025, 89.40000, 69.80528,4
350.027, 89.70000, 69.62386,4
350.015, 90.00000, 69.39107,4
350.034, 90.30000, 69.23661,4
350.029, 90.60000, 69.01803,4
350.032, 90.90000, 68.87596,4
350.022, 91.20000, 68.69253,4
350.029, 91.50000, 68.51111,4
350.02, 91.80000, 68.31330,4
350.031, 92.10000, 68.13406,4
350.025, 92.40000, 67.94444,4
350.031, 92.70000, 67.76321,4
350.028, 93.00000, 67.57359,4
350.026, 93.30000, 67.41694,4
350.021, 93.60000, 67.26029,4
350.036, 93.90000, 67.03570,4
350.033, 94.20000, 66.85446,4
350.029, 94.50000, 66.69362,4
350.03, 94.80000, 66.51038,4
350.026, 95.10000, 66.37013,4
350.026, 95.40000, 66.14554,4
350.038, 95.70000, 66.00947,4
350.024, 96.00000, 65.81384,4
350.024, 96.30000, 65.65920,4
350.026, 96.60000, 65.47177,4
350.021, 96.90000, 65.28834,4
350.022, 97.20000, 65.15446,4
350.017, 97.50000, 64.94208,4
350.019, 97.80000, 64.75264,4
350.023, 98.10000, 64.59381,4
350.02, 98.40000, 64.44353,4
350.025, 98.70000, 64.24973,4
350.017, 99.00000, 64.10965,4
350.025, 99.30000, 63.94062,4
350.027, 99.60000, 63.75319,4
350.026, 99.90000, 63.60474,4
350.034,100.2, 63.41730,4
350.025,100.5, 63.25865,4
350.019,100.8, 63.07304,4
350.023,101.1, 62.92896,4
350.023,101.4, 62.75993,4
350.02,101.7, 62.60528,4
350.025,102, 62.43643,4
350.025,102.3, 62.27778,4
350.027,102.6, 62.10455,4
350.03,102.9, 61.91913,4
350.035,103.2, 61.79344,4
350.039,103.5, 61.60182,4
350.036,103.8, 61.45337,4
350.034,104.1, 61.29891,4
350.028,104.4, 61.12168,4
350.022,104.7, 60.97741,4
350.026,105, 60.85592,4
350.029,105.3, 60.64772,4
350.024,105.6, 60.49326,4
350.027,105.9, 60.37359,4
350.03,106.2, 60.20255,4
350.029,106.5, 60.05009,4
350.026,106.8, 59.88743,4
350.024,107.1, 59.74317,4
350.026,107.4, 59.58233,4
350.025,107.7, 59.42987,4
350.026,108, 59.27741,4
350.028,108.3, 59.14554,4
350.024,108.6, 58.98470,4
350.028,108.9, 58.82823,4
350.034,109.2, 58.64882,4
350.036,109.5, 58.52113,4
350.038,109.8, 58.36448,4
350.036,110.1, 58.21621,4
350.034,110.4, 58.05956,4
350.024,110.7, 57.92149,4
350.037,111, 57.76903,4
350.024,111.3, 57.63916,4
350.027,111.6, 57.50109,4
350.02,111.9, 57.33005,4
350.023,112.2, 57.21257,4
350.03,112.5, 57.06011,4
350.023,112.8, 56.89945,4
350.03,113.1, 56.79836,4
350.023,113.4, 56.61093,4
350.02,113.7, 56.50984,4
350.018,114, 56.32240,4
350.022,114.3, 56.19053,4
350.026,114.6, 56.03188,4
350.037,114.9, 55.90619,4
350.031,115.2, 55.78051,4
350.028,115.5, 55.64645,4
350.032,115.8, 55.46521,4
350.034,116.1, 55.38689,4
350.035,116.4, 55.22204,4
350.039,116.7, 55.08397,4
350.037,117, 54.93352,4
350.024,117.3, 54.77286,4
350.024,117.6, 54.64918,4
350.029,117.9, 54.55027,4
350.027,118.2, 54.39362,4
350.026,118.5, 54.23698,4
350.033,118.8, 54.10109,4
350.03,119.1, 53.97942,4
350.031,119.4, 53.87031,4
350.034,119.7, 53.72805,4
350.027,120, 53.59617,4
350.027,120.3, 53.44572,4
350.027,120.6, 53.33862,4
350.031,120.9, 53.18816,4
350.027,121.2, 53.05829,4
350.032,121.5, 52.93260,4
350.03,121.8, 52.79454,4
350.03,122.1, 52.66885,4
350.03,122.4, 52.52259,4
350.027,122.7, 52.39472,4
350.037,123, 52.25665,4
350.034,123.3, 52.15774,4
350.03,123.6, 52.01967,4
350.046,123.9, 51.85483,4
350.028,124.2, 51.72714,4
350.037,124.5, 51.64463,4
350.03,124.8, 51.51275,4
350.021,125.1, 51.40984,4
350.026,125.4, 51.28415,4
350.035,125.7, 51.15228,4
350.018,126, 51.01002,4
350.012,126.3, 50.90692,4
350.029,126.6, 50.80401,4
350.038,126.9, 50.64536,4
350.021,127.2, 50.54426,4
350.035,127.5, 50.40838,4
350.034,127.8, 50.30109,4
350.023,128.1, 50.17541,4
350.025,128.4, 50.04353,4
350.024,128.7, 49.91384,4
350.031,129, 49.79016,4
350.031,129.3, 49.68907,4
350.024,129.6, 49.56557,4
350.038,129.9, 49.46667,4
350.03,130.2, 49.33880,4
350.033,130.5, 49.20911,4
350.027,130.8, 49.11621,4
350.036,131.1, 48.99271,4
350.029,131.4, 48.88761,4
350.034,131.7, 48.78871,4
350.032,132, 48.65683,4
350.039,132.3, 48.54954,4
350.038,132.6, 48.41985,4
350.03,132.9, 48.32095,4
350.034,133.2, 48.19308,4
350.03,133.5, 48.06120,4
350.035,133.8, 47.98288,4
350.037,134.1, 47.88397,4
350.033,134.4, 47.75829,4
350.027,134.7, 47.65938,4
350.025,135, 47.55847,4
350.028,135.3, 47.45537,4
350.026,135.6, 47.32769,4
350.029,135.9, 47.19982,4
350.027,136.2, 47.09690,4
350.029,136.5, 46.99180,4
350.032,136.8, 46.86612,4
350.033,137.1, 46.76302,4
350.034,137.4, 46.68270,4
350.033,137.7, 46.54663,4
350.026,138, 46.43534,4
350.021,138.3, 46.34262,4
350.029,138.6, 46.23752,4
350.043,138.9, 46.11184,4
350.031,139.2, 46.01293,4
350.019,139.5, 45.87905,4
350.027,139.8, 45.82131,4
350.035,140.1, 45.72240,4
350.033,140.4, 45.62350,4
350.028,140.7, 45.52040,4
350.013,141, 45.39472,4
350.017,141.3, 45.31639,4
350.027,141.6, 45.21548,4
350.03,141.9, 45.09180,4
350.024,142.2, 45.00328,4
350.024,142.5, 44.91457,4
350.013,142.8, 44.79089,4
350.04,143.1, 44.69199,4
350.03,143.4, 44.58907,4
350.032,143.7, 44.50036,4
350.029,144, 44.40146,4
350.024,144.3, 44.31075,4
350.021,144.6, 44.18506,4
350.031,144.9, 44.11093,4
350.037,145.2, 44.01202,4
350.045,145.5, 43.91311,4
350.031,145.8, 43.83279,4
350.031,146.1, 43.72969,4
350.042,146.4, 43.60601,4
350.037,146.7, 43.55246,4
350.034,147, 43.42277,4
350.03,147.3, 43.35464,4
350.028,147.6, 43.27432,4
350.034,147.9, 43.17541,4
350.029,148.2, 43.07650,4
350.027,148.5, 42.97760,4
350.033,148.8, 42.87450,4
350.027,149.1, 42.79836,4
350.023,149.4, 42.69945,4
350.027,149.7, 42.61694,4
350.03,150, 42.51603,4
350.039,150.3, 42.43971,4
350.034,150.6, 42.34080,4
350.025,150.9, 42.24189,4
350.027,151.2, 42.16157,4
350.038,151.5, 42.06885,4
350.032,151.8, 41.96995,4
350.034,152.1, 41.87723,4
350.03,152.4, 41.80091,4
350.029,152.7, 41.72678,4
350.028,153, 41.60729,4
350.034,153.3, 41.55155,4
350.034,153.6, 41.42805,4
350.037,153.9, 41.35173,4
350.035,154.2, 41.25282,4
350.035,154.5, 41.17869,4
350.037,154.8, 41.07978,4
350.028,155.1, 40.98087,4
350.015,155.4, 40.93133,4
350.026,155.7, 40.83042,4
350.031,156, 40.75628,4
350.027,156.3, 40.68197,4
350.036,156.6, 40.60583,4
350.043,156.9, 40.50073,4
350.037,157.2, 40.42441,4
350.039,157.5, 40.35027,4
350.037,157.8, 40.25337,4
350.033,158.1, 40.17104,4
350.041,158.4, 40.09672,4
350.034,158.7, 40.02058,4
350.043,159, 39.94226,4
350.037,159.3, 39.86812,4
350.053,159.6, 39.77541,4
350.045,159.9, 39.66612,4
350.032,160.2, 39.59199,4
350.038,160.5, 39.51767,4
350.05,160.8, 39.41475,4
350.043,161.1, 39.37559,4
350.034,161.4, 39.30146,4
350.039,161.7, 39.20856,4
350.039,162, 39.13443,4
350.039,162.3, 39.03352,4
350.043,162.6, 38.95938,4
350.038,162.9, 38.90984,4
350.026,163.2, 38.81293,4
350.028,163.5, 38.75118,4
350.033,163.8, 38.65228,4
350.036,164.1, 38.57395,4
350.034,164.4, 38.49982,4
350.033,164.7, 38.42568,4
350.038,165, 38.35137,4
350.035,165.3, 38.27304,4
350.037,165.6, 38.19891,4
350.039,165.9, 38.12477,4
350.031,166.2, 38.04845,4
350.029,166.5, 37.97851,4
350.026,166.8, 37.89800,4
350.028,167.1, 37.84863,4
350.02,167.4, 37.74353,4
350.027,167.7, 37.69399,4
350.013,168, 37.61585,4
350.027,168.3, 37.53953,4
350.028,168.6, 37.45920,4
350.007,168.9, 37.41585,4
350.015,169.2, 37.31075,4
350.021,169.5, 37.24281,4
350.023,169.8, 37.16248,4
350.029,170.1, 37.12532,4
350.043,170.4, 37.03880,4
350.036,170.7, 36.96466,4
350.037,171, 36.89872,4
350.037,171.3, 36.81202,4
350.036,171.6, 36.76266,4
350.031,171.9, 36.68852,4
350.036,172.2, 36.61020,4
350.036,172.5, 36.56066,4
350.041,172.8, 36.47413,4
350.032,173.1, 36.38761,4
350.03,173.4, 36.33607,4
350.037,173.7, 36.28670,4
350.024,174, 36.18780,4
350.032,174.3, 36.13825,4
350.026,174.6, 36.08889,4
350.044,174.9, 35.98998,4
350.036,175.2, 35.91566,4
350.041,175.5, 35.86630,4
350.036,175.8, 35.81676,4
350.036,176.1, 35.76120,4
350.032,176.4, 35.68907,4
350.04,176.7, 35.62714,4
350.05,177, 35.53862,4
350.043,177.3, 35.46448,4
350.038,177.6, 35.41494,4
350.045,177.9, 35.36557,4
350.03,178.2, 35.29126,4
350.03,178.5, 35.24390,4
350.023,178.8, 35.16357,4
350.026,179.1, 35.08944,4
350.033,179.4, 35.03989,4
350.034,179.7, 34.96375,4
350.021,180, 34.88944,4
350.017,180.3, 34.81530,4
350.031,180.6, 34.78434,4
350.029,180.9, 34.71239,4
350.027,181.2, 34.66284,4
350.026,181.5, 34.57632,4
350.015,181.8, 34.51439,4
350.021,182.1, 34.46503,4
350.018,182.4, 34.39089,4
350.025,182.7, 34.36412,4
350.022,183, 34.28980,4
350.029,183.3, 34.24044,4
350.035,183.6, 34.16412,4
350.026,183.9, 34.09818,4
350.034,184.2, 34.04882,4
350.02,184.5, 33.97450,4
350.014,184.8, 33.92095,4
350.021,185.1, 33.87158,4
350.032,185.4, 33.77268,4
350.018,185.7, 33.76648,4
350.019,186, 33.69235,4
350.034,186.3, 33.64281,4
350.032,186.6, 33.54390,4
350.039,186.9, 33.50674,4
350.034,187.2, 33.44499,4
350.025,187.5, 33.37086,4
350.025,187.8, 33.31111,4
350.025,188.1, 33.28434,4
350.023,188.4, 33.23479,4
350.028,188.7, 33.16066,4
350.016,189, 33.08434,4
350.026,189.3, 33.05956,4
350.013,189.6, 32.98142,4
350.028,189.9, 32.95665,4
350.029,190.2, 32.88251,4
350.019,190.5, 32.80619,4
350.029,190.8, 32.78142,4
350.023,191.1, 32.70109,4
350.031,191.4, 32.65774,4
350.024,191.7, 32.60638,4
350.029,192, 32.55683,4
350.028,192.3, 32.48270,4
350.037,192.6, 32.43315,4
350.021,192.9, 32.37559,4
350.027,193.2, 32.32605,4
350.023,193.5, 32.27668,4
350.024,193.8, 32.22514,4
350.024,194.1, 32.16940,4
350.017,194.4, 32.12623,4
350.01,194.7, 32.07049,4
350.017,195, 32.02113,4
350.026,195.3, 31.96539,4
350.025,195.6, 31.90364,4
350.028,195.9, 31.84791,4
350.023,196.2, 31.79654,4
350.036,196.5, 31.73461,4
350.024,196.8, 31.69763,4
350.015,197.1, 31.64809,4
350.033,197.4, 31.59872,4
350.031,197.7, 31.54918,4
350.032,198, 31.48124,4
350.028,198.3, 31.44608,4
350.036,198.6, 31.39672,4
350.035,198.9, 31.34718,4
350.038,199.2, 31.29781,4
350.031,199.5, 31.22149,4
350.036,199.8, 31.17213,4
350.031,200.1, 31.12259,4
350.036,200.4, 31.10401,4
350.031,200.7, 31.04845,4
350.016,201, 30.99891,4
350.018,201.3, 30.94954,4
350.035,201.6, 30.89800,4
350.04,201.9, 30.84863,4
350.027,202.2, 30.78051,4
350.026,202.5, 30.74973,4
350.026,202.8, 30.70018,4
350.024,203.1, 30.65082,4
350.025,203.4, 30.59927,4
350.026,203.7, 30.55792,4
350.041,204, 30.50237,4
350.024,204.3, 30.47140,4
350.026,204.6, 30.42204,4
350.029,204.9, 30.37250,4
350.028,205.2, 30.33552,4
350.029,205.5, 30.26740,4
350.027,205.8, 30.24281,4
350.028,206.1, 30.19326,4
350.033,206.4, 30.14171,4
350.028,206.7, 30.09235,4
350.02,207, 30.06758,4
350.021,207.3, 29.96047,4
350.028,207.6, 29.98506,4
350.035,207.9, 29.88616,4
350.026,208.2, 29.86157,4
350.037,208.5, 29.83679,4
350.018,208.8, 29.76266,4
350.013,209.1, 29.71311,4
350.035,209.4, 29.67614,4
350.039,209.7, 29.62040,4
350.031,210, 29.59563,4
350.036,210.3, 29.52149,4
350.038,210.6, 29.49672,4
350.029,210.9, 29.44736,4
350.039,211.2, 29.39781,4
350.03,211.5, 29.36703,4
350.039,211.8, 29.32368,4
350.03,212.1, 29.24954,4
350.03,212.4, 29.24954,4
350.028,212.7, 29.17942,4
350.033,213, 29.13005,4
350.031,213.3, 29.10528,4
350.025,213.6, 29.06812,4
350.021,213.9, 29.02277,4
350.028,214.2, 28.99818,4
350.026,214.5, 28.93005,4
350.028,214.8, 28.89709,4
350.033,215.1, 28.84772,4
350.022,215.4, 28.81676,4
350.026,215.7, 28.76120,4
350.035,216, 28.74882,4
350.054,216.3, 28.67450,4
350.045,216.6, 28.64991,4
350.047,216.9, 28.60036,4
350.043,217.2, 28.57559,4
350.043,217.5, 28.52623,4
350.047,217.8, 28.48288,4
350.101,218.1, 28.47049,4
350.047,218.4, 28.42933,4
350.034,218.7, 28.38616,4
350.03,219, 28.31184,4
350.033,219.3, 28.26867,4
350.023,219.6, 28.23770,4
350.032,219.9, 28.21293,4
350.031,220.2, 28.16357,4
350.044,220.5, 28.13880,4
350.035,220.8, 28.08925,4
350.035,221.1, 28.03989,4
350.027,221.4, 27.99035,4
350.033,221.7, 27.99035,4
350.032,222, 27.93898,4
350.039,222.3, 27.87086,4
350.039,222.6, 27.86466,4
350.037,222.9, 27.81111,4
350.043,223.2, 27.76175,4
350.027,223.5, 27.71220,4
350.032,223.8, 27.68743,4
350.034,224.1, 27.66284,4
350.032,224.4, 27.62568,4
350.037,224.7, 27.57413,4
350.035,225, 27.54936,4
350.029,225.3, 27.49381,4
350.026,225.6, 27.49381,4
350.032,225.9, 27.41967,4
350.025,226.2, 27.39490,4
350.026,226.5, 27.37013,4
350.027,226.8, 27.32077,4
350.03,227.1, 27.28361,4
350.029,227.4, 27.24645,4
350.032,227.7, 27.19709,4
350.035,228, 27.14754,4
350.03,228.3, 27.12295,4
350.037,228.6, 27.09818,4
350.034,228.9, 27.07341,4
350.035,229.2, 27.04463,4
350.042,229.5, 26.98069,4
350.04,229.8, 26.94973,4
350.026,230.1, 26.89836,4
350.031,230.4, 26.87559,4
350.032,230.7, 26.86321,4
350.031,231, 26.82623,4
350.028,231.3, 26.74791,4
350.036,231.6, 26.72113,4
350.038,231.9, 26.72113,4
350.027,232.2, 26.64681,4
350.038,232.5, 26.64481,4
350.021,232.8, 26.62004,4
350.025,233.1, 26.57067,4
350.036,233.4, 26.54590,4
350.031,233.7, 26.47177,4
350.041,234, 26.47177,4
350.039,234.3, 26.42222,4
350.026,234.6, 26.39763,4
350.036,234.9, 26.37286,4
350.031,235.2, 26.34809,4
350.017,235.5, 26.27395,4
350.023,235.8, 26.27395,4
350.028,236.1, 26.23060,4
350.019,236.4, 26.19964,4
350.021,236.7, 26.14827,4
350.024,237, 26.12350,4
350.024,237.3, 26.09672,4
350.036,237.6, 26.09672,4
350.033,237.9, 26.01840,4
350.033,238.2, 26.00601,4
350.04,238.5, 25.97505,4
350.031,238.8, 25.93188,4
350.039,239.1, 25.90710,4
350.039,239.4, 25.90091,4
350.033,239.7, 25.85155,4
350.039,240, 25.82678,4
350.044,240.3, 25.77723,4
350.032,240.6, 25.75264,4
350.03,240.9, 25.72787,4
350.037,241.2, 25.67832,4
350.037,241.5, 25.65373,4
350.033,241.8, 25.62277,4
350.037,242.1, 25.58361,4
350.033,242.4, 25.55883,4
350.024,242.7, 25.51566,4
350.024,243, 25.48470,4
350.038,243.3, 25.45993,4
350.03,243.6, 25.43115,4
350.035,243.9, 25.38160,4
350.026,244.2, 25.35483,4
350.034,244.5, 25.33005,4
350.021,244.8, 25.28470,4
350.026,245.1, 25.29089,4
350.032,245.4, 25.24772,4
350.024,245.7, 25.24153,4
350.025,246, 25.19199,4
350.021,246.3, 25.16740,4
350.02,246.6, 25.13024,4
350.018,246.9, 25.07468,4
350.032,247.2, 25.06849,4
350.017,247.5, 25.04372,4
350.021,247.8, 25.01894,4
350.023,248.1, 24.99417,4
350.029,248.4, 24.94882,4
350.022,248.7, 24.90565,4
350.027,249, 24.87887,4
350.018,249.3, 24.85410,4
350.024,249.6, 24.82933,4
350.016,249.9, 24.80255,4
350.024,250.2, 24.75938,4
350.03,250.5, 24.75319,4
350.032,250.8, 24.72222,4
350.024,251.1, 24.69745,4
350.022,251.4, 24.64809,4
350.03,251.7, 24.60474,4
350.025,252, 24.57395,4
350.017,252.3, 24.54918,4
350.028,252.6, 24.54918,4
350.023,252.9, 24.47486,4
350.02,253.2, 24.48106,4
350.033,253.5, 24.45027,4
350.027,253.8, 24.41730,4
350.032,254.1, 24.41111,4
350.033,254.4, 24.36576,4
350.028,254.7, 24.36576,4
350.018,255, 24.31220,4
350.022,255.3, 24.31220,4
350.019,255.6, 24.26266,4
350.033,255.9, 24.23789,4
350.019,256.2, 24.24408,4
350.027,256.5, 24.18852,4
350.024,256.8, 24.16794,4
350.021,257.1, 24.14317,4
350.017,257.4, 24.11840,4
350.03,257.7, 24.09381,4
350.018,258, 24.04426,4
350.025,258.3, 24.01949,4
350.04,258.6, 24.01949,4
350.032,258.9, 23.99490,4
350.031,259.2, 23.94536,4
350.034,259.5, 23.93297,4
350.031,259.8, 23.91239,4
350.024,260.1, 23.88142,4
350.024,260.4, 23.85683,4
350.036,260.7, 23.83825,4
350.03,261, 23.78670,4
350.133,261.3, 23.76193,4
350.034,261.6, 23.76193,4
350.024,261.9, 23.71257,4
350.023,262.2, 23.69399,4
350.02,262.5, 23.66302,4
350.032,262.8, 23.63825,4
350.028,263.1, 23.61366,4
350.028,263.4, 23.58889,4
350.026,263.7, 23.56412,4
350.025,264, 23.53934,4
350.047,264.3, 23.52095,4
350.033,264.6, 23.48798,4
350.032,264.9, 23.46321,4
350.031,265.2, 23.43843,4
350.03,265.5, 23.43224,4
350.036,265.8, 23.38907,4
350.036,266.1, 23.38907,4
350.036,266.4, 23.36430,4
350.028,266.7, 23.33953,4
350.035,267, 23.31475,4
350.037,267.3, 23.26321,4
350.035,267.6, 23.28179,4
350.04,267.9, 23.23242,4
350.031,268.2, 23.20765,4
350.04,268.5, 23.20146,4
350.029,268.8, 23.18288,4
350.037,269.1, 23.13352,4
350.037,269.4, 23.12732,4
350.032,269.7, 23.06958,4
350.037,270, 23.06958,4
350.034,270.3, 23.04481,4
350.038,270.6, 23.02022,4
350.044,270.9, 22.99545,4
350.034,271.2, 22.94590,4
350.038,271.5, 22.94590,4
350.032,271.8, 22.91512,4
350.035,272.1, 22.88816,4
350.028,272.4, 22.85118,4
350.046,272.7, 22.85118,4
350.033,273, 22.84499,4
350.026,273.3, 22.82022,4
350.037,273.6, 22.78925,4
350.036,273.9, 22.75228,4
350.022,274.2, 22.73989,4
350.037,274.5, 22.71512,4
350.04,274.8, 22.69035,4
350.032,275.1, 22.69035,4
350.032,275.4, 22.66576,4
350.025,275.7, 22.64098,4
350.023,276, 22.58124,4
350.022,276.3, 22.58944,4
350.029,276.6, 22.58525,4
350.027,276.9, 22.53588,4
350.028,277.2, 22.52350,4
350.035,277.5, 22.48634,4
350.038,277.8, 22.45756,4
350.029,278.1, 22.43279,4
350.036,278.4, 22.39581,4
350.029,278.7, 22.40820,4
350.037,279, 22.38342,4
350.044,279.3, 22.35865,4
350.044,279.6, 22.33388,4
350.046,279.9, 22.32149,4
350.045,280.2, 22.28452,4
350.041,280.5, 22.28452,4
350.039,280.8, 22.23097,4
350.042,281.1, 22.23097,4
350.034,281.4, 22.20619,4
350.049,281.7, 22.20820,4
350.037,282, 22.17122,5
350.463,282.3, 22.16425,5
351.912,282.6, 22.24736,5
354.163,282.9, 22.36814,5
356.724,283.2, 22.48233,5
359.276,283.5, 22.57284,5
361.724,283.8, 22.60601,5
364.172,284.1, 22.63309,5
366.696,284.4, 22.63060,5
369.408,284.7, 22.66055,5
372.275,285, 22.63060,5
375.257,285.3, 22.61612,5
378.333,285.6, 22.63060,5
381.45,285.9, 22.57927,5
384.586,286.2, 22.53169,5
387.753,286.5, 22.43343,5
390.935,286.8, 22.37104,5
394.15,287.1, 22.24111,5
397.371,287.4, 22.06812,5
400.604,287.7, 21.93497,5
403.832,288, 21.65811,5
407.07,288.3, 21.40578,5
410.293,288.6, 21.10583,5
413.521,288.9, 20.75932,5
416.735,289.2, 20.39271,5
419.936,289.5, 19.96457,5
423.126,289.8, 19.56448,5
426.308,290.1, 19.11715,5
429.485,290.4, 18.67013,5
432.642,290.7, 18.23593,5
435.787,291, 17.82113,5
438.933,291.3, 17.48919,5
442.055,291.6, 17.13497,5
445.176,291.9, 16.86465,5
448.285,292.2, 16.57650,5
451.388,292.5, 16.38079,5
454.477,292.8, 16.21166,5
457.57,293.1, 16.09341,5
460.647,293.4, 16.00565,5
463.716,293.7, 15.96606,5
466.789,294, 15.95410,5
469.835,294.3, 16.01800,5
472.884,294.6, 16.07978,5
475.933,294.9, 16.08619,5
478.981,295.2, 16.12933,5
482.026,295.5, 16.17356,5
485.07,295.8, 16.20346,5
488.097,296.1, 16.24084,5
491.127,296.4, 16.27760,5
494.153,296.7, 16.32966,5
497.174,297, 16.35191,5
500.193,297.3, 16.37005,5
503.217,297.6, 16.42605,5
506.226,297.9, 16.46250,5
509.24,298.2, 16.50018,5
512.244,298.5, 16.52565,5
515.261,298.8, 16.54973,5
518.271,299.1, 16.60041,5
521.272,299.4, 16.62587,5
524.28,299.7, 16.66964,5
527.29,300, 16.70838,5
530.289,300.3, 16.73283,5
533.295,300.6, 16.75774,5
536.285,300.9, 16.79501,5
539.291,301.2, 16.83206,5
542.29,301.5, 16.85037,5
545.29,301.8, 16.90000,5
548.296,302.1, 16.91001,5
551.303,302.4, 16.95155,5
554.3,302.7, 16.98879,5
557.295,303, 17.02987,5
560.296,303.3, 17.04088,5
563.311,303.6, 17.06685,5
566.297,303.9, 17.10459,5
569.302,304.2, 17.14098,5
572.297,304.5, 17.16572,5
575.305,304.8, 17.19053,5
578.309,305.1, 17.22948,5
581.311,305.4, 17.24007,5
584.318,305.7, 17.25763,5
587.327,306, 17.29563,5
590.328,306.3, 17.34265,5
593.326,306.6, 17.34499,5
596.335,306.9, 17.38268,5
599.329,307.2, 17.41931,5
602.337,307.5, 17.45765,5
605.338,307.8, 17.46867,5
608.349,308.1, 17.47907,5
611.355,308.4, 17.51821,5
614.347,308.7, 17.53013,5
617.35,309, 17.55519,5
620.356,309.3, 17.58451,5
623.363,309.6, 17.58197,5
626.356,309.9, 17.61898,5
629.359,310.2, 17.65628,5
632.365,310.5, 17.66463,5
635.385,310.8, 17.70565,5
638.379,311.1, 17.70350,5
641.387,311.4, 17.73042,5
644.388,311.7, 17.75625,5
647.397,312, 17.77996,5
650.389,312.3, 17.80702,5
653.388,312.6, 17.80455,5
656.391,312.9, 17.82894,5
659.389,313.2, 17.85410,5
662.392,313.5, 17.87809,5
665.384,313.8, 17.90346,5
668.387,314.1, 17.88486,5
671.401,314.4, 17.91585,5
674.412,314.7, 17.97111,5
677.405,315, 17.95301,5
680.416,315.3, 17.98443,5
683.417,315.6, 17.98397,5
686.408,315.9, 18.03689,5
689.405,316.2, 18.02914,5
692.409,316.5, 18.05491,5
695.412,316.8, 18.07869,5
698.399,317.1, 18.07568,5
701.402,317.4, 18.10346,5
704.392,317.7, 18.08845,5
707.385,318, 18.10546,5
710.379,318.3, 18.12919,5
713.383,318.6, 18.15483,5
716.376,318.9, 18.16633,5
719.377,319.2, 18.17960,5
722.362,319.5, 18.19280,5
725.353,319.8, 18.19818,5
728.344,320.1, 18.21702,5
731.351,320.4, 18.24153,5
734.342,320.7, 18.27634,5
737.334,321, 18.26612,5
740.326,321.3, 18.30563,5
743.313,321.6, 18.29089,5
746.311,321.9, 18.31609,5
749.298,322.2, 18.34044,5
752.289,322.5, 18.35077,5
755.282,322.8, 18.37741,5
758.28,323.1, 18.37668,5
761.262,323.4, 18.38980,5
764.267,323.7, 18.41744,5
767.249,324, 18.41457,5
770.251,324.3, 18.43983,5
773.238,324.6, 18.46393,5
776.226,324.9, 18.48342,5
779.221,325.2, 18.48251,5
782.209,325.5, 18.49949,5
785.198,325.8, 18.51548,5
788.197,326.1, 18.53542,5
791.193,326.4, 18.54026,5
794.191,326.7, 18.54989,5