File: data/TGA/ExpDat_2024_02_16_SL_001H_280C_isotherm_1pt_min_SC.csv
#EXPORTTYPE:                 ,DATA ALL
#FILE:                       ,2024_02_16_SL_001H_280C_isotherm_1pt_min_SCB_with_100C_stabilization.ngb-ss5
#FORMAT:                     ,NETZSCH5
#FTYPE:                      ,ANSI
#IDENTITY:                   ,PS
#DECIMAL:                    ,POINT
#SEPARATOR:                  ,COMMA
#MTYPE:                      ,DSC
#INSTRUMENT:                 ,NETZSCH STA 449F5
#PROJECT:                    ,2024_02_16_SL_005
#DATE/TIME:                  ,2/16/2024 3:54:24 PM (UTC-5)
#CORR. FILE:                 ,
#TEMPCAL:                    ,28-06-2023 13:26
#SENSITIVITY:                ,28-06-2023 13:53
#LABORATORY:                 ,Tran/AAG
#OPERATOR:                   ,Stanley
#REMARK:                     ,
#SAMPLE:                     ,001H_control
#SAMPLE MASS /mg:            ,5.58
#MATERIAL:                   ,
#REFERENCE:                  ,
#REFERENCE MASS /mg:         ,0
#TYPE OF CRUCIBLE:           ,Al2O3 85 µl, open
#SAMPLE CRUCIBLE MASS /mg:   ,0
#REFERENCE CRUCIBLE MASS /mg:,0
#DSC RANGE /µV:              ,5000
#TG RANGE /mg:               ,35000
#TAU-R:                      ,---
#CORR. CODE:                 ,000
#EXO:                        ,-1
#RANGE:                      ,30°C....800°C/0.0....10.0K/min
#SEGMENT:                    ,S1-5/5
#SEG. 1:                     ,30°C/10.0(K/min)/100°C
#SEG. 2:                     ,100°C/00:10/100°C
#SEG. 3:                     ,100°C/10.0(K/min)/350°C
#SEG. 4:                     ,350°C/04:00/350°C
#SEG. 5:                     ,350°C/10.0(K/min)/800°C

##Temp./°C,Time/min,DSC/(mW/mg),Mass/%,Gas Flow(purge2)/(ml/min),Gas Flow(protective)/(ml/min),TIC(scan:1)/A,Sensit./(uV/mW),Segment
 28.63600,  0.00000, 7.404326e-02,    100,50.00000,20.00000,1.111666e-07,0.92329,1
 29.57000,  0.60000, 5.300472e-02,     99.97975,50.00000,20.00000,1.175762e-07,0.92347,1
 31.24600,  1.20000,      0.16074,     99.80341,50.00000,20.00000,1.271466e-07,0.92378,1
 33.91000,  1.80000,      0.32176,     96.72975,50.00000,20.00000,1.310127e-07,0.92423,1
 37.34900,  2.40000,      0.46693,     97.26703,50.00000,20.00000,1.327247e-07,0.92474,1
 41.40000,  3.00000,      0.58770,     97.75968,50.00000,20.00000,1.331246e-07,0.92524,1
 46.08900,  3.60000,      0.71562,     98.25645,50.00000,20.00000,1.326131e-07,0.92569,1
 51.49600,  4.20000,      0.85784,     98.73907,50.00000,20.00000,1.322196e-07,0.92603,1
 57.57200,  4.80000,      0.99793,     99.21344,50.00000,20.00000,1.307450e-07,0.92620,1
 64.17100,  5.40000,      1.12218,     99.53369,50.00000,20.00000,1.297454e-07,0.92611,1
 71.17100,  6.00000,      1.22722,     99.83584,50.00000,20.00000,1.290502e-07,0.92572,1
 78.42400,  6.60000,      1.31804,    100.085,50.00000,20.00000,1.279903e-07,0.92501,1
 85.87200,  7.20000,      1.38897,    100.258,50.00000,20.00000,1.272532e-07,0.92394,2
 92.38500,  7.80000,      1.24527,     99.98584,50.00000,20.00000,1.264308e-07,0.92274,2
 97.33100,  8.40000,      0.97376,     99.37348,50.00000,20.00000,1.254747e-07,0.92167,2
100.901,  9.00000,      0.71556,     98.82814,50.00000,20.00000,1.243856e-07,0.92080,2
103.701,  9.60000,      0.55221,     98.40645,50.00000,20.00000,1.230072e-07,0.92008,2
106.05, 10.20000,      0.44181,     98.09624,50.00000,20.00000,1.210973e-07,0.91943,2
107.862, 10.80000,      0.33091,     97.72939,50.00000,20.00000,1.197670e-07,0.91891,2
109.111, 11.40000,      0.21464,     97.36039,50.00000,20.00000,1.187353e-07,0.91855,2
109.837, 12.00000,      0.10541,     96.92849,50.00000,20.00000,1.178432e-07,0.91833,2
110.169, 12.60000, 1.578378e-02,     96.59391,50.00000,20.00000,1.168187e-07,0.91823,2
110.187, 13.20000,-5.360563e-02,     96.28781,50.00000,20.00000,1.161023e-07,0.91822,2
109.975, 13.80000,     -0.10676,     95.98172,50.00000,20.00000,1.153443e-07,0.91829,2
109.569, 14.40000,     -0.14783,     95.70197,50.00000,20.00000,1.146983e-07,0.91841,2
109.012, 15.00000,     -0.18115,     95.45860,50.00000,20.00000,1.138516e-07,0.91858,2
108.347, 15.60000,     -0.20298,     95.22545,50.00000,20.00000,1.133179e-07,0.91877,2
107.642, 16.20000,     -0.21722,     95.00860,50.00000,20.00000,1.125902e-07,0.91898,2
106.882, 16.80000,     -0.22610,     94.78746,50.00000,20.00000,1.121377e-07,0.91920,2
106.251, 17.40000,     -0.19527,     94.71452,50.00000,20.00000,1.116670e-07,0.91938,3
106.822, 18.00000, 5.399411e-02,     95.27814,50.00000,20.00000,1.111478e-07,0.91921,3
109.001, 18.60000,      0.40680,     96.02025,50.00000,20.00000,1.106190e-07,0.91858,3
112.169, 19.20000,      0.66113,     96.56147,50.00000,20.00000,1.100784e-07,0.91761,3
115.926, 19.80000,      0.83479,     96.92652,50.00000,20.00000,1.094255e-07,0.91639,3
120.358, 20.40000,      1.01986,     97.31577,50.00000,20.00000,1.090472e-07,0.91486,3
125.602, 21.00000,      1.23023,     97.64624,50.00000,20.00000,1.084687e-07,0.91290,3
131.548, 21.60000,      1.42491,     97.93011,50.00000,20.00000,1.079725e-07,0.91052,3
137.988, 22.20000,      1.57870,     98.18548,50.00000,20.00000,1.076559e-07,0.90774,3
144.771, 22.80000,      1.72054,     98.35986,50.00000,20.00000,1.069766e-07,0.90458,3
151.809, 23.40000,      1.86136,     98.50591,50.00000,20.00000,1.065836e-07,0.90108,3
158.967, 24.00000,      1.97545,     98.60323,50.00000,20.00000,1.061652e-07,0.89728,3
166.22, 24.60000,      2.06499,     98.70054,50.00000,20.00000,1.057492e-07,0.89320,3
173.475, 25.20000,      2.12791,     98.70054,50.00000,20.00000,1.055786e-07,0.88889,3
180.679, 25.80000,      2.16593,     98.72473,50.00000,20.00000,1.052369e-07,0.88440,3
187.82, 26.40000,      2.16977,     98.70054,50.00000,20.00000,1.047083e-07,0.87975,3
194.871, 27.00000,      2.13804,     98.67007,50.00000,20.00000,1.044051e-07,0.87496,3
201.816, 27.60000,      2.07525,     98.62133,50.00000,20.00000,1.041696e-07,0.87008,3
208.613, 28.20000,      2.01805,     98.59713,50.00000,20.00000,1.039537e-07,0.86513,3
215.289, 28.80000,      1.96779,     98.54229,50.00000,20.00000,1.037107e-07,0.86013,3
221.844, 29.40000,      1.91896,     98.53620,50.00000,20.00000,1.031546e-07,0.85508,3
228.313, 30.00000,      1.87498,     98.50179,50.00000,20.00000,1.030868e-07,0.84998,3
234.681, 30.60000,      1.82796,     98.50789,50.00000,20.00000,1.028270e-07,0.84484,3
240.961, 31.20000,      1.78141,     98.45914,50.00000,20.00000,1.024008e-07,0.83967,3
247.179, 31.80000,      1.75370,     98.43495,50.00000,20.00000,1.024006e-07,0.83446,3
253.33, 32.40000,      1.73643,     98.41452,50.00000,20.00000,1.018683e-07,0.82922,3
259.439, 33.00000,      1.72750,     98.37204,50.00000,20.00000,1.017225e-07,0.82393,3
265.501, 33.60000,      1.72136,     98.29086,50.00000,20.00000,1.015248e-07,0.81861,3
271.545, 34.20000,      1.72129,     98.15502,50.00000,20.00000,1.010412e-07,0.81323,3
277.531, 34.80000,      1.72650,     97.97867,50.00000,20.00000,1.011575e-07,0.80785,3
283.527, 35.40000,      1.73958,     97.67670,50.00000,20.00000,1.007023e-07,0.80241,3
289.495, 36.00000,      1.75615,     97.32186,50.00000,20.00000,1.004878e-07,0.79694,3
295.446, 36.60000,      1.77751,     96.81487,50.00000,20.00000,1.003575e-07,0.79144,3
301.385, 37.20000,      1.79957,     96.15806,50.00000,20.00000,1.003203e-07,0.78591,3
307.321, 37.80000,      1.82974,     95.47688,50.00000,20.00000,9.987105e-08,0.78036,3
313.258, 38.40000,      1.86429,     94.61111,50.00000,20.00000,9.986174e-08,0.77477,3
319.197, 39.00000,      1.90954,     93.65412,50.00000,20.00000,9.976698e-08,0.76915,3
325.134, 39.60000,      1.96356,     92.52491,50.00000,20.00000,9.964914e-08,0.76352,3
331.072, 40.20000,      2.02745,     91.21935,50.00000,20.00000,9.934175e-08,0.75787,3
337.004, 40.80000,      2.09794,     89.73728,50.00000,20.00000,9.913770e-08,0.75222,3
342.939, 41.40000,      2.17558,     87.98961,50.00000,20.00000,9.910041e-08,0.74655,3
348.878, 42.00000,      2.26014,     86.15878,50.00000,20.00000,9.885879e-08,0.74088,4
352.616, 42.60000,      1.57438,     83.87599,50.00000,20.00000,9.898980e-08,0.73732,4
353.492, 43.20000,      0.67781,     81.44910,50.00000,20.00000,9.890134e-08,0.73648,4
354.234, 43.80000,      0.49728,     79.26971,50.00000,20.00000,9.872651e-08,0.73577,4
355.017, 44.40000,      0.46281,     77.24839,50.00000,20.00000,9.880326e-08,0.73502,4
355.339, 45.00000,      0.29999,     75.28369,50.00000,20.00000,9.904343e-08,0.73472,4
355.244, 45.60000,      0.13397,     73.40233,50.00000,20.00000,9.895940e-08,0.73481,4
354.99, 46.20000, 4.315457e-02,     71.65663,50.00000,20.00000,9.865850e-08,0.73505,4
354.681, 46.80000,-8.553079e-03,     69.98405,50.00000,20.00000,9.870989e-08,0.73535,4
354.309, 47.40000,-5.296634e-02,     68.44731,50.00000,20.00000,9.845776e-08,0.73570,4
353.907, 48.00000,-8.693099e-02,     66.99964,50.00000,20.00000,9.851668e-08,0.73608,4
353.517, 48.60000,     -0.10564,     65.63118,50.00000,20.00000,9.845906e-08,0.73646,4
353.132, 49.20000,     -0.11709,     64.34373,50.00000,20.00000,9.811330e-08,0.73682,4
352.782, 49.80000,     -0.12538,     63.12330,50.00000,20.00000,9.780142e-08,0.73716,4
352.557, 50.40000,     -0.13035,     61.94731,50.00000,20.00000,9.783503e-08,0.73737,4
352.15, 51.00000,     -0.13232,     60.83226,50.00000,20.00000,9.773070e-08,0.73776,4
351.88, 51.60000,     -0.13246,     59.78620,50.00000,20.00000,9.744207e-08,0.73802,4
351.647, 52.20000,     -0.13224,     58.79068,50.00000,20.00000,9.741593e-08,0.73824,4
351.439, 52.80000,     -0.13183,     57.77491,50.00000,20.00000,9.760117e-08,0.73844,4
351.259, 53.40000,     -0.13088,     56.89713,50.00000,20.00000,9.742524e-08,0.73861,4
351.098, 54.00000,     -0.13103,     55.97670,50.00000,20.00000,9.731884e-08,0.73876,4
350.972, 54.60000,     -0.13046,     55.08047,50.00000,20.00000,9.733329e-08,0.73888,4
350.839, 55.20000,     -0.13192,     54.28584,50.00000,20.00000,9.703942e-08,0.73901,4
350.737, 55.80000,     -0.13319,     53.42814,50.00000,20.00000,9.710641e-08,0.73911,4
350.632, 56.40000,     -0.13299,     52.65771,50.00000,20.00000,9.678312e-08,0.73921,4
350.562, 57.00000,     -0.13446,     51.88118,50.00000,20.00000,9.675004e-08,0.73928,4
350.493, 57.60000,     -0.13500,     51.12903,50.00000,20.00000,9.677860e-08,0.73934,4
350.425, 58.20000,     -0.13739,     50.40932,50.00000,20.00000,9.655427e-08,0.73941,4
350.36, 58.80000,     -0.13627,     49.70986,50.00000,20.00000,9.665459e-08,0.73947,4
350.314, 59.40000,     -0.13737,     49.03065,50.00000,20.00000,9.658473e-08,0.73951,4
350.283, 60.00000,     -0.13940,     48.37581,50.00000,20.00000,9.635820e-08,0.73954,4
350.232, 60.60000,     -0.14106,     47.71290,50.00000,20.00000,9.643213e-08,0.73959,4
350.204, 61.20000,     -0.13976,     47.09050,50.00000,20.00000,9.658783e-08,0.73962,4
350.183, 61.80000,     -0.14308,     46.46398,50.00000,20.00000,9.608283e-08,0.73964,4
350.157, 62.40000,     -0.14141,     45.85161,50.00000,20.00000,9.624056e-08,0.73966,4
350.15, 63.00000,     -0.14326,     45.28799,50.00000,20.00000,9.634458e-08,0.73967,4
350.126, 63.60000,     -0.14658,     44.67993,50.00000,20.00000,9.605025e-08,0.73969,4
350.129, 64.20000,     -0.14732,     44.15072,50.00000,20.00000,9.609824e-08,0.73969,4
350.117, 64.80000,     -0.14917,     43.57688,50.00000,20.00000,9.606085e-08,0.73970,4
350.102, 65.40000,     -0.15175,     43.06810,50.00000,20.00000,9.598723e-08,0.73972,4
350.088, 66.00000,     -0.15397,     42.51864,50.00000,20.00000,9.577375e-08,0.73973,4
350.076, 66.60000,     -0.15378,     42.00968,50.00000,20.00000,9.607187e-08,0.73974,4
350.079, 67.20000,     -0.15544,     41.50699,50.00000,20.00000,9.591934e-08,0.73974,4
350.074, 67.80000,     -0.15692,     41.00412,50.00000,20.00000,9.573287e-08,0.73974,4
350.065, 68.40000,     -0.15877,     40.52975,50.00000,20.00000,9.570732e-08,0.73975,4
350.061, 69.00000,     -0.15932,     40.04928,50.00000,20.00000,9.556964e-08,0.73975,4
350.051, 69.60000,     -0.16098,     39.55448,50.00000,20.00000,9.563765e-08,0.73976,4
350.047, 70.20000,     -0.16154,     39.13082,50.00000,20.00000,9.570561e-08,0.73977,4
350.047, 70.80000,     -0.16061,     38.64014,50.00000,20.00000,9.567277e-08,0.73977,4
350.049, 71.40000,     -0.16191,     38.20627,50.00000,20.00000,9.537587e-08,0.73977,4
350.041, 72.00000,     -0.16246,     37.77849,50.00000,20.00000,9.550955e-08,0.73977,4
350.034, 72.60000,     -0.16338,     37.37903,50.00000,20.00000,9.539140e-08,0.73978,4
350.038, 73.20000,     -0.16412,     36.94319,50.00000,20.00000,9.543196e-08,0.73978,4
350.022, 73.80000,     -0.16393,     36.53566,50.00000,20.00000,9.524325e-08,0.73979,4
350.024, 74.40000,     -0.16209,     36.16470,50.00000,20.00000,9.545681e-08,0.73979,4
350.03, 75.00000,     -0.16190,     35.76738,50.00000,20.00000,9.523695e-08,0.73978,4
350.024, 75.60000,     -0.16116,     35.38817,50.00000,20.00000,9.545284e-08,0.73979,4
350.021, 76.20000,     -0.16153,     35.01720,50.00000,20.00000,9.514777e-08,0.73979,4
350.023, 76.80000,     -0.16042,     34.61362,50.00000,20.00000,9.522517e-08,0.73979,4
350.023, 77.40000,     -0.15839,     34.26505,50.00000,20.00000,9.522687e-08,0.73979,4
350.031, 78.00000,     -0.15969,     33.90412,50.00000,20.00000,9.548132e-08,0.73978,4
350.027, 78.60000,     -0.15950,     33.53100,50.00000,20.00000,9.520334e-08,0.73979,4
350.029, 79.20000,     -0.15728,     33.19444,50.00000,20.00000,9.503870e-08,0.73978,4
350.028, 79.80000,     -0.15821,     32.87616,50.00000,20.00000,9.507254e-08,0.73979,4
350.021, 80.40000,     -0.15506,     32.53351,50.00000,20.00000,9.506040e-08,0.73979,4
350.019, 81.00000,     -0.15432,     32.19301,50.00000,20.00000,9.514196e-08,0.73979,4
350.029, 81.60000,     -0.15285,     31.86254,50.00000,20.00000,9.491219e-08,0.73978,4
350.028, 82.20000,     -0.15433,     31.56039,50.00000,20.00000,9.482891e-08,0.73979,4
350.036, 82.80000,     -0.14730,     31.23405,50.00000,20.00000,9.468498e-08,0.73978,4
350.044, 83.40000,     -0.14934,     30.90143,50.00000,20.00000,9.501545e-08,0.73977,4
350.029, 84.00000,     -0.14934,     30.61756,50.00000,20.00000,9.479218e-08,0.73978,4
350.03, 84.60000,     -0.15081,     30.31362,50.00000,20.00000,9.482792e-08,0.73978,4
350.033, 85.20000,     -0.15137,     30.01559,50.00000,20.00000,9.492492e-08,0.73978,4
350.026, 85.80000,     -0.15044,     29.71953,50.00000,20.00000,9.473634e-08,0.73979,4
350.031, 86.40000,     -0.14952,     29.45394,50.00000,20.00000,9.475409e-08,0.73978,4
350.03, 87.00000,     -0.14804,     29.12742,50.00000,20.00000,9.471628e-08,0.73978,4
350.037, 87.60000,     -0.14952,     28.87616,50.00000,20.00000,9.478395e-08,0.73978,4
350.026, 88.20000,     -0.15137,     28.60645,50.00000,20.00000,9.475068e-08,0.73979,4
350.029, 88.80000,     -0.14934,     28.33065,50.00000,20.00000,9.480693e-08,0.73978,4
350.02, 89.40000,     -0.15081,     28.05896,50.00000,20.00000,9.464186e-08,0.73979,4
350.027, 90.00000,     -0.15063,     27.78943,50.00000,20.00000,9.462887e-08,0.73979,4
350.031, 90.60000,     -0.14860,     27.52778,50.00000,20.00000,9.464852e-08,0.73978,4
350.023, 91.20000,     -0.14915,     27.29462,50.00000,20.00000,9.476832e-08,0.73979,4
350.03, 91.80000,     -0.15044,     27.04534,50.00000,20.00000,9.437196e-08,0.73978,4
350.019, 92.40000,     -0.15044,     26.77563,50.00000,20.00000,9.462537e-08,0.73979,4
350.024, 93.00000,     -0.15007,     26.53029,50.00000,20.00000,9.442677e-08,0.73979,4
350.029, 93.60000,     -0.15007,     26.28513,50.00000,20.00000,9.455686e-08,0.73978,4
350.024, 94.20000,     -0.15044,     26.06004,50.00000,20.00000,9.460323e-08,0.73979,4
350.028, 94.80000,     -0.15026,     25.82079,50.00000,20.00000,9.456640e-08,0.73979,4
350.035, 95.40000,     -0.14934,     25.60376,50.00000,20.00000,9.472703e-08,0.73978,4
350.039, 96.00000,     -0.14897,     25.37276,50.00000,20.00000,9.474734e-08,0.73978,4
350.03, 96.60000,     -0.15211,     25.12742,50.00000,20.00000,9.447369e-08,0.73978,4
350.03, 97.20000,     -0.15174,     24.90430,50.00000,20.00000,9.470809e-08,0.73978,4
350.035, 97.80000,     -0.15155,     24.67939,50.00000,20.00000,9.451283e-08,0.73978,4
350.039, 98.40000,     -0.15082,     24.46649,50.00000,20.00000,9.454517e-08,0.73978,4
350.035, 99.00000,     -0.15118,     24.26165,50.00000,20.00000,9.423145e-08,0.73978,4
350.036, 99.60000,     -0.15008,     24.04068,50.00000,20.00000,9.422415e-08,0.73978,4
350.037,100.2,     -0.15118,     23.84194,50.00000,20.00000,9.423460e-08,0.73978,4
350.019,100.8,     -0.15007,     23.61093,50.00000,20.00000,9.365795e-08,0.73979,4
350.032,101.4,     -0.15007,     23.42025,50.00000,20.00000,9.375991e-08,0.73978,4
350.036,102,     -0.15174,     23.22168,50.00000,20.00000,9.455097e-08,0.73978,4
350.035,102.6,     -0.15118,     23.02097,50.00000,20.00000,9.442611e-08,0.73978,4
350.037,103.2,     -0.14971,     22.79588,50.00000,20.00000,9.435544e-08,0.73978,4
350.035,103.8,     -0.15026,     22.59713,50.00000,20.00000,9.432315e-08,0.73978,4
350.039,104.4,     -0.14823,     22.40251,50.00000,20.00000,9.442962e-08,0.73978,4
350.031,105,     -0.14934,     22.23835,50.00000,20.00000,9.451008e-08,0.73978,4
350.024,105.6,     -0.15044,     22.03566,50.00000,20.00000,9.433177e-08,0.73979,4
350.037,106.2,     -0.14767,     21.83889,50.00000,20.00000,9.420940e-08,0.73978,4
350.036,106.8,     -0.15192,     21.66864,50.00000,20.00000,9.437722e-08,0.73978,4
350.026,107.4,     -0.15044,     21.49229,50.00000,20.00000,9.420368e-08,0.73979,4
350.027,108,     -0.14897,     21.31792,50.00000,20.00000,9.436790e-08,0.73979,4
350.028,108.6,     -0.14897,     21.14552,50.00000,20.00000,9.442330e-08,0.73979,4
350.027,109.2,     -0.15026,     20.96918,50.00000,20.00000,9.438293e-08,0.73979,4
350.031,109.8,     -0.15137,     20.79677,50.00000,20.00000,9.429760e-08,0.73978,4
350.016,110.4,     -0.14952,     20.65699,50.00000,20.00000,9.415159e-08,0.73980,4
350.023,111,     -0.14749,     20.48047,50.00000,20.00000,9.409485e-08,0.73979,4
350.024,111.6,     -0.14675,     20.32437,50.00000,20.00000,9.405061e-08,0.73979,4
350.032,112.2,     -0.14989,     20.13996,50.00000,20.00000,9.416159e-08,0.73978,4
350.018,112.8,     -0.14933,     19.99803,50.00000,20.00000,9.398755e-08,0.73980,4
350.025,113.4,     -0.14749,     19.84391,50.00000,20.00000,9.415165e-08,0.73979,4
350.026,114,     -0.14601,     19.68978,50.00000,20.00000,9.401537e-08,0.73979,4
350.027,114.6,     -0.14767,     19.53584,50.00000,20.00000,9.407226e-08,0.73979,4
350.03,115.2,     -0.14767,     19.37975,50.00000,20.00000,9.361384e-08,0.73978,4
350.019,115.8,     -0.14878,     19.23369,50.00000,20.00000,9.418423e-08,0.73979,4
350.024,116.4,     -0.14601,     19.07760,50.00000,20.00000,9.393725e-08,0.73979,4
350.028,117,     -0.14638,     18.92760,50.00000,20.00000,9.397852e-08,0.73979,4
350.034,117.6,     -0.14472,     18.80179,50.00000,20.00000,9.419453e-08,0.73978,4
350.028,118.2,     -0.14545,     18.64373,50.00000,20.00000,9.388724e-08,0.73979,4
350.037,118.8,     -0.14416,     18.50789,50.00000,20.00000,9.412891e-08,0.73978,4
350.044,119.4,     -0.14527,     18.35789,50.00000,20.00000,9.405803e-08,0.73977,4
350.043,120,     -0.14268,     18.21183,50.00000,20.00000,9.389252e-08,0.73977,4
350.036,120.6,     -0.14379,     18.09014,50.00000,20.00000,9.401218e-08,0.73978,4
350.038,121.2,     -0.14435,     17.96864,50.00000,20.00000,9.396731e-08,0.73978,4
350.046,121.8,     -0.14527,     17.79427,50.00000,20.00000,9.396322e-08,0.73977,4
350.041,122.4,     -0.14416,     17.71308,50.00000,20.00000,9.394173e-08,0.73977,4
350.029,123,     -0.14361,     17.54480,50.00000,20.00000,9.413300e-08,0.73978,4
350.046,123.6,     -0.14305,     17.42312,50.00000,20.00000,9.402234e-08,0.73977,4
350.047,124.2,     -0.14342,     17.30161,50.00000,20.00000,9.390942e-08,0.73977,4
350.041,124.8,     -0.14453,     17.15753,50.00000,20.00000,9.403051e-08,0.73977,4
350.049,125.4,     -0.14435,     17.05627,50.00000,20.00000,9.403504e-08,0.73977,4
350.047,126,     -0.14324,     16.90412,50.00000,20.00000,9.395849e-08,0.73977,4
350.047,126.6,     -0.14416,     16.80681,50.00000,20.00000,9.407406e-08,0.73977,4
350.027,127.2,     -0.14471,     16.65681,50.00000,20.00000,9.386891e-08,0.73979,4
350.037,127.8,     -0.14379,     16.55950,50.00000,20.00000,9.417234e-08,0.73978,4
350.026,128.4,     -0.14287,     16.41147,50.00000,20.00000,9.404860e-08,0.73979,4
350.025,129,     -0.14083,     16.28978,50.00000,20.00000,9.410894e-08,0.73979,4
350.029,129.6,     -0.14157,     16.20072,50.00000,20.00000,9.411622e-08,0.73978,4
350.026,130.2,     -0.14157,     16.05072,50.00000,20.00000,9.409569e-08,0.73979,4
350.025,130.8,     -0.14102,     15.94928,50.00000,20.00000,9.385061e-08,0.73979,4
350.033,131.4,     -0.14028,     15.83172,50.00000,20.00000,9.431444e-08,0.73978,4
350.021,132,     -0.14083,     15.72832,50.00000,20.00000,9.405951e-08,0.73979,4
350.037,132.6,     -0.14065,     15.60663,50.00000,20.00000,9.400027e-08,0.73978,4
350.029,133.2,     -0.14083,     15.53369,50.00000,20.00000,9.401794e-08,0.73978,4
350.033,133.8,     -0.14009,     15.41201,50.00000,20.00000,9.399805e-08,0.73978,4
350.031,134.4,     -0.13991,     15.29032,50.00000,20.00000,9.394615e-08,0.73978,4
350.041,135,     -0.14176,     15.16470,50.00000,20.00000,9.408241e-08,0.73977,4
350.027,135.6,     -0.14139,     15.06738,50.00000,20.00000,9.399123e-08,0.73979,4
350.019,136.2,     -0.13972,     14.97007,50.00000,20.00000,9.422248e-08,0.73979,4
350.031,136.8,     -0.13825,     14.87061,50.00000,20.00000,9.398819e-08,0.73978,4
350.031,137.4,     -0.13677,     14.76935,50.00000,20.00000,9.395677e-08,0.73978,4
350.031,138,     -0.13732,     14.67204,50.00000,20.00000,9.414837e-08,0.73978,4
350.036,138.6,     -0.13899,     14.55448,50.00000,20.00000,9.414684e-08,0.73978,4
350.032,139.2,     -0.14120,     14.47527,50.00000,20.00000,9.417796e-08,0.73978,4
350.03,139.8,     -0.13899,     14.35376,50.00000,20.00000,9.417339e-08,0.73978,4
350.025,140.4,     -0.13788,     14.26039,50.00000,20.00000,9.378569e-08,0.73979,4
350.028,141,     -0.13862,     14.15699,50.00000,20.00000,9.418407e-08,0.73979,4
350.026,141.6,     -0.13751,     14.08405,50.00000,20.00000,9.388827e-08,0.73979,4
350.024,142.2,     -0.13751,     13.98477,50.00000,20.00000,9.333624e-08,0.73979,4
350.029,142.8,     -0.13788,     13.88746,50.00000,20.00000,9.501816e-08,0.73978,4
350.024,143.4,     -0.13695,     13.79014,50.00000,20.00000,9.428768e-08,0.73979,4
350.035,144,     -0.13437,     13.68459,50.00000,20.00000,9.405157e-08,0.73978,4
350.029,144.6,     -0.13363,     13.60556,50.00000,20.00000,1.023869e-07,0.73978,4
350.035,145.2,     -0.13418,     13.53262,50.00000,20.00000,9.434219e-08,0.73978,4
350.035,145.8,     -0.13400,     13.40287,50.00000,20.00000,9.432966e-08,0.73978,4
350.03,146.4,     -0.13252,     13.34803,50.00000,20.00000,9.448180e-08,0.73978,4
350.038,147,     -0.13363,     13.27509,50.00000,20.00000,9.464875e-08,0.73978,4
350.038,147.6,     -0.13455,     13.17778,50.00000,20.00000,9.439478e-08,0.73978,4
350.038,148.2,     -0.13474,     13.07849,50.00000,20.00000,9.431536e-08,0.73978,4
350.036,148.8,     -0.13270,     13.00538,50.00000,20.00000,9.414078e-08,0.73978,4
350.037,149.4,     -0.13400,     12.90806,50.00000,20.00000,9.344056e-08,0.73978,4
350.033,150,     -0.13418,     12.83513,50.00000,20.00000,1.042127e-07,0.73978,4
350.024,150.6,     -0.13325,     12.76219,50.00000,20.00000,9.432001e-08,0.73979,4
350.029,151.2,     -0.13326,     12.67294,50.00000,20.00000,9.450191e-08,0.73978,4
350.021,151.8,     -0.13085,     12.61828,50.00000,20.00000,9.449933e-08,0.73979,4
350.029,152.4,     -0.13011,     12.53710,50.00000,20.00000,9.433548e-08,0.73978,4
350.038,153,     -0.13178,     12.44588,50.00000,20.00000,9.453500e-08,0.73978,4
350.031,153.6,     -0.13122,     12.37294,50.00000,20.00000,9.439765e-08,0.73978,4
350.027,154.2,     -0.15118,     12.29982,50.00000,20.00000,9.438942e-08,0.73979,4
350.027,154.8,     -0.14120,     12.20251,50.00000,20.00000,9.439941e-08,0.73979,4
350.024,155.4,     -0.13880,     12.14176,50.00000,20.00000,9.425325e-08,0.73979,4
350.025,156,     -0.13788,     12.07491,50.00000,20.00000,9.402393e-08,0.73979,4
350.027,156.6,     -0.13584,     11.98978,50.00000,20.00000,9.344731e-08,0.73979,4
350.029,157.2,     -0.13806,     11.93495,50.00000,20.00000,9.411752e-08,0.73978,4
350.02,157.8,     -0.13695,     11.85591,50.00000,20.00000,9.422225e-08,0.73979,4
350.031,158.4,     -0.13510,     11.73423,50.00000,20.00000,9.421596e-08,0.73978,4
350.022,159,     -0.13621,     11.70986,50.00000,20.00000,9.395624e-08,0.73979,4
350.025,159.6,     -0.13510,     11.66129,50.00000,20.00000,9.394142e-08,0.73979,4
350.025,160.2,     -0.14120,     11.58835,50.00000,20.00000,9.399840e-08,0.73979,4
350.035,160.8,     -0.13658,     11.54373,50.00000,20.00000,9.405857e-08,0.73978,4
350.037,161.4,     -0.13677,     11.44427,50.00000,20.00000,9.395104e-08,0.73978,4
350.024,162,     -0.13714,     11.38763,50.00000,20.00000,9.393911e-08,0.73979,4
350.029,162.6,     -0.13677,     11.31452,50.00000,20.00000,9.383962e-08,0.73978,4
350.024,163.2,     -0.13547,     11.26595,50.00000,20.00000,9.419130e-08,0.73979,4
350.027,163.8,     -0.13436,     11.19301,50.00000,20.00000,9.428155e-08,0.73979,4
350.028,164.4,     -0.13529,     11.09570,50.00000,20.00000,9.401349e-08,0.73979,4
350.035,165,     -0.13455,     11.05305,50.00000,20.00000,9.389321e-08,0.73978,4
350.034,165.6,     -0.13621,     10.98620,50.00000,20.00000,9.394212e-08,0.73978,4
350.04,166.2,     -0.13621,     10.92527,50.00000,20.00000,9.397072e-08,0.73977,4
350.037,166.8,     -0.13640,     10.85036,50.00000,20.00000,9.404105e-08,0.73978,4
350.042,167.4,     -0.13585,     10.82599,50.00000,20.00000,9.407102e-08,0.73977,4
350.037,168,     -0.13991,     10.75305,50.00000,20.00000,9.411501e-08,0.73978,4
350.035,168.6,     -0.13899,     10.70430,50.00000,20.00000,9.406638e-08,0.73978,4
350.047,169.2,     -0.13696,     10.63746,50.00000,20.00000,9.406511e-08,0.73977,4
350.045,169.8,     -0.14047,     10.56452,50.00000,20.00000,9.410200e-08,0.73977,4
350.039,170.4,     -0.14231,     10.51577,50.00000,20.00000,9.418989e-08,0.73978,4
350.046,171,     -0.14379,     10.46111,50.00000,20.00000,9.405532e-08,0.73977,4
350.043,171.6,     -0.14694,     10.39409,50.00000,20.00000,9.397744e-08,0.73977,4
350.032,172.2,     -0.15007,     10.32115,50.00000,20.00000,9.401735e-08,0.73978,4
350.032,172.8,     -0.15174,     10.24606,50.00000,20.00000,9.389511e-08,0.73978,4
350.032,173.4,     -0.15433,     10.19749,50.00000,20.00000,9.388292e-08,0.73978,4
350.028,174,     -0.15562,     10.12455,50.00000,20.00000,9.446179e-08,0.73979,4
350.037,174.6,     -0.15765,     10.12240,50.00000,20.00000,9.354403e-08,0.73978,4
350.024,175.2,     -0.16153,     10.05556,50.00000,20.00000,7.202926e-08,0.73979,4
350.024,175.8,     -0.16615,     10.00090,50.00000,20.00000,9.494648e-08,0.73979,4
350.029,176.4,     -0.16708,      9.93387,50.00000,20.00000,9.454043e-08,0.73978,4
350.04,177,     -0.17115,      9.87921,50.00000,20.00000,9.440107e-08,0.73977,4
350.051,177.6,     -0.17577,      9.83047,50.00000,20.00000,9.433262e-08,0.73976,4
350.041,178.2,     -0.17946,      9.75753,50.00000,20.00000,9.439386e-08,0.73977,4
350.025,178.8,     -0.18390,      9.72706,50.00000,20.00000,9.405925e-08,0.73979,4
350.03,179.4,     -0.18833,      9.67849,50.00000,20.00000,9.399186e-08,0.73978,4
350.031,180,     -0.19129,      9.60538,50.00000,20.00000,9.578606e-08,0.73978,4
350.027,180.6,     -0.19535,      9.55681,50.00000,20.00000,9.596634e-08,0.73979,4
350.041,181.2,     -0.19480,      9.50806,50.00000,20.00000,9.464518e-08,0.73977,4
350.044,181.8,     -0.20035,      9.42903,50.00000,20.00000,9.463354e-08,0.73977,4
350.032,182.4,     -0.20626,      9.38656,50.00000,20.00000,9.449500e-08,0.73978,4
350.044,183,     -0.20848,      9.31147,50.00000,20.00000,9.431691e-08,0.73977,4
350.117,183.6,     -0.21201,      9.25681,50.00000,20.00000,9.432855e-08,0.73970,4
350.044,184.2,     -0.21698,      9.22025,50.00000,20.00000,9.419025e-08,0.73977,4
350.048,184.8,     -0.22031,      9.18781,50.00000,20.00000,9.429982e-08,0.73977,4
350.041,185.4,     -0.22456,      9.11487,50.00000,20.00000,9.423271e-08,0.73977,4
350.037,186,     -0.22918,      9.06613,50.00000,20.00000,9.904390e-08,0.73978,4
350.032,186.6,     -0.23214,      9.01756,50.00000,20.00000,9.465287e-08,0.73978,4
350.031,187.2,     -0.23491,      8.96882,50.00000,20.00000,9.452879e-08,0.73978,4
350.026,187.8,     -0.23731,      8.91416,50.00000,20.00000,9.455124e-08,0.73979,4
350.034,188.4,     -0.24267,      8.88978,50.00000,20.00000,9.446257e-08,0.73978,4
350.033,189,     -0.24655,      8.81685,50.00000,20.00000,9.431590e-08,0.73978,4
350.025,189.6,     -0.25172,      8.76810,50.00000,20.00000,9.444668e-08,0.73979,4
350.035,190.2,     -0.25653,      8.71953,50.00000,20.00000,9.393599e-08,0.73978,4
350.029,190.8,     -0.26060,      8.67079,50.00000,20.00000,9.264244e-08,0.73978,4
350.015,191.4,     -0.24839,      8.61004,50.00000,20.00000,9.344234e-08,0.73980,4
350.031,192,     -0.25930,      8.58566,50.00000,20.00000,9.442134e-08,0.73978,4
350.036,192.6,     -0.26633,      8.51470,50.00000,20.00000,9.458316e-08,0.73978,4
350.027,193.2,     -0.27686,      8.49642,50.00000,20.00000,9.446239e-08,0.73979,4
350.015,193.8,     -0.27760,      8.44176,50.00000,20.00000,9.443833e-08,0.73980,4
350.027,194.4,     -0.27742,      8.39910,50.00000,20.00000,9.447090e-08,0.73979,4
350.02,195,     -0.27945,      8.36882,50.00000,20.00000,9.415818e-08,0.73979,4
350.027,195.6,     -0.28296,      8.30179,50.00000,20.00000,9.408935e-08,0.73979,4
350.019,196.2,     -0.28554,      8.27742,50.00000,20.00000,9.805577e-08,0.73979,4
350.029,196.8,     -0.28407,      8.22885,50.00000,20.00000,9.518467e-08,0.73978,4
350.038,197.4,     -0.28463,      8.19229,50.00000,20.00000,9.461345e-08,0.73978,4
350.041,198,     -0.28740,      8.14373,50.00000,20.00000,9.470181e-08,0.73977,4
350.045,198.6,     -0.29017,      8.08280,50.00000,20.00000,9.450002e-08,0.73977,4
350.043,199.2,     -0.29387,      8.05251,50.00000,20.00000,9.444179e-08,0.73977,4
350.031,199.8,     -0.29331,      7.99767,50.00000,20.00000,9.444758e-08,0.73978,4
350.034,200.4,     -0.29331,      7.97348,50.00000,20.00000,9.434560e-08,0.73978,4
350.031,201,     -0.29608,      7.92473,50.00000,20.00000,9.396205e-08,0.73978,4
350.018,201.6,     -0.29552,      7.90036,50.00000,20.00000,9.368108e-08,0.73980,4
350.03,202.2,     -0.29608,      7.85179,50.00000,20.00000,1.044360e-07,0.73978,4
350.019,202.8,     -0.29737,      7.80305,50.00000,20.00000,9.618329e-08,0.73979,4
350.004,203.4,     -0.29958,      7.77473,50.00000,20.00000,9.470559e-08,0.73981,4
350.008,204,     -0.29903,      7.71380,50.00000,20.00000,9.446350e-08,0.73980,4
350.022,204.6,     -0.29682,      7.66720,50.00000,20.00000,9.438188e-08,0.73979,4
350.025,205.2,     -0.30052,      7.66111,50.00000,20.00000,9.450339e-08,0.73979,4
350.032,205.8,     -0.30126,      7.61864,50.00000,20.00000,9.414295e-08,0.73978,4
350.024,206.4,     -0.30144,      7.54552,50.00000,20.00000,9.416665e-08,0.73979,4
350.029,207,     -0.30089,      7.53351,50.00000,20.00000,9.408963e-08,0.73978,4
350.03,207.6,     -0.30070,      7.48477,50.00000,20.00000,9.396085e-08,0.73978,4
350.026,208.2,     -0.30274,      7.43620,50.00000,20.00000,9.396113e-08,0.73979,4
350.033,208.8,     -0.30144,      7.41183,50.00000,20.00000,9.942418e-08,0.73978,4
350.038,209.4,     -0.30163,      7.33889,50.00000,20.00000,9.447046e-08,0.73978,4
350.034,210,     -0.30181,      7.30842,50.00000,20.00000,9.439865e-08,0.73978,4
350.033,210.6,     -0.30163,      7.23943,50.00000,20.00000,9.441779e-08,0.73978,4
350.038,211.2,     -0.30274,      7.22724,50.00000,20.00000,9.429651e-08,0.73978,4
350.035,211.8,     -0.30181,      7.19695,50.00000,20.00000,9.404581e-08,0.73978,4
350.027,212.4,     -0.30089,      7.14211,50.00000,20.00000,9.409345e-08,0.73979,4
350.032,213,     -0.30144,      7.11165,50.00000,20.00000,9.411504e-08,0.73978,4
350.029,213.6,     -0.30089,      7.10573,50.00000,20.00000,9.386837e-08,0.73978,4
350.029,214.2,     -0.30033,      7.05699,50.00000,20.00000,9.502826e-08,0.73978,4
350.04,214.8,     -0.30219,      7.00842,50.00000,20.00000,1.027390e-07,0.73977,4
350.029,215.4,     -0.30255,      6.98405,50.00000,20.00000,9.436067e-08,0.73978,4
350.026,216,     -0.29941,      6.91703,50.00000,20.00000,9.439622e-08,0.73979,4
350.042,216.6,     -0.29941,      6.89283,50.00000,20.00000,9.431238e-08,0.73977,4
350.029,217.2,     -0.29867,      6.86237,50.00000,20.00000,9.433866e-08,0.73978,4
350.03,217.8,     -0.29959,      6.83799,50.00000,20.00000,9.418830e-08,0.73978,4
350.03,218.4,     -0.29996,      6.80161,50.00000,20.00000,9.424728e-08,0.73978,4
350.03,219,     -0.29941,      6.77527,50.00000,20.00000,9.390509e-08,0.73978,4
350.018,219.6,     -0.29996,      6.71237,50.00000,20.00000,9.354198e-08,0.73980,4
350.032,220.2,     -0.29941,      6.69409,50.00000,20.00000,9.449107e-08,0.73978,4
350.029,220.8,     -0.29830,      6.63530,50.00000,20.00000,9.398047e-08,0.73978,4
350.037,221.4,     -0.29849,      6.63530,50.00000,20.00000,9.366401e-08,0.73978,4
350.031,222,     -0.30070,      6.61093,50.00000,20.00000,9.385094e-08,0.73978,4
350.033,222.6,     -0.29849,      6.55824,50.00000,20.00000,9.377566e-08,0.73978,4
350.027,223.2,     -0.29867,      6.50753,50.00000,20.00000,9.373248e-08,0.73979,4
350.031,223.8,     -0.29701,      6.48315,50.00000,20.00000,9.387239e-08,0.73978,4
350.035,224.4,     -0.29572,      6.43459,50.00000,20.00000,9.388583e-08,0.73978,4
350.041,225,     -0.29831,      6.41022,50.00000,20.00000,9.378650e-08,0.73977,4
350.035,225.6,     -0.29830,      6.38996,50.00000,20.00000,9.377944e-08,0.73978,4
350.031,226.2,     -0.29775,      6.35950,50.00000,20.00000,9.375556e-08,0.73978,4
350.035,226.8,     -0.29886,      6.31093,50.00000,20.00000,9.394023e-08,0.73978,4
350.039,227.4,     -0.29867,      6.29265,50.00000,20.00000,9.382420e-08,0.73978,4
350.039,228,     -0.29664,      6.24409,50.00000,20.00000,9.383616e-08,0.73978,4
350.036,228.6,     -0.29646,      6.23190,50.00000,20.00000,9.396837e-08,0.73978,4
350.033,229.2,     -0.29627,      6.18315,50.00000,20.00000,9.377885e-08,0.73978,4
350.029,229.8,     -0.29590,      6.13459,50.00000,20.00000,9.400366e-08,0.73978,4
350.027,230.4,     -0.29775,      6.11022,50.00000,20.00000,9.317599e-08,0.73979,4
350.027,231,     -0.29627,      6.08584,50.00000,20.00000,9.452645e-08,0.73979,4
350.034,231.6,     -0.29424,      6.03728,50.00000,20.00000,9.380697e-08,0.73978,4
350.028,232.2,     -0.29645,      6.01290,50.00000,20.00000,9.410839e-08,0.73979,4
350.019,232.8,     -0.29571,      5.98853,50.00000,20.00000,9.441921e-08,0.73979,4
350.023,233.4,     -0.29497,      5.96416,50.00000,20.00000,9.430504e-08,0.73979,4
350.03,234,     -0.29405,      5.90950,50.00000,20.00000,9.416664e-08,0.73978,4
350.029,234.6,     -0.29386,      5.88513,50.00000,20.00000,9.426779e-08,0.73978,4
350.028,235.2,     -0.29423,      5.84265,50.00000,20.00000,9.360776e-08,0.73979,4
350.026,235.8,     -0.29386,      5.81613,50.00000,20.00000,9.472478e-08,0.73979,4
350.032,236.4,     -0.29276,      5.77366,50.00000,20.00000,9.453568e-08,0.73978,4
350.034,237,     -0.29165,      5.77975,50.00000,20.00000,9.416116e-08,0.73978,4
350.038,237.6,     -0.29165,      5.70681,50.00000,20.00000,9.429728e-08,0.73978,4
350.028,238.2,     -0.29349,      5.70681,50.00000,20.00000,9.433148e-08,0.73979,4
350.024,238.8,     -0.29442,      5.68244,50.00000,20.00000,9.442798e-08,0.73979,4
350.025,239.4,     -0.29479,      5.60735,50.00000,20.00000,9.393171e-08,0.73979,4
350.023,240,     -0.29220,      5.60341,50.00000,20.00000,9.254692e-08,0.73979,4
350.023,240.6,     -0.29091,      5.56685,50.00000,20.00000,9.412365e-08,0.73979,4
350.035,241.2,     -0.28980,      5.53029,50.00000,20.00000,9.343443e-08,0.73978,4
350.033,241.8,     -0.29054,      5.50609,50.00000,20.00000,9.393962e-08,0.73978,4
350.032,242.4,     -0.28998,      5.48172,50.00000,20.00000,9.382825e-08,0.73978,4
350.038,243,     -0.28962,      5.45735,50.00000,20.00000,9.398097e-08,0.73978,4
350.029,243.6,     -0.29128,      5.42079,50.00000,20.00000,9.373147e-08,0.73978,4
350.025,244.2,     -0.29128,      5.40878,50.00000,20.00000,9.372190e-08,0.73979,4
350.03,244.8,     -0.29054,      5.38441,50.00000,20.00000,9.351345e-08,0.73978,4
350.029,245.4,     -0.28721,      5.34176,50.00000,20.00000,9.395390e-08,0.73978,4
350.032,246,     -0.28684,      5.31147,50.00000,20.00000,9.383170e-08,0.73978,4
350.034,246.6,     -0.28721,      5.26272,50.00000,20.00000,9.378790e-08,0.73978,4
350.039,247.2,     -0.28980,      5.23835,50.00000,20.00000,9.386717e-08,0.73978,4
350.019,247.8,     -0.28776,      5.23835,50.00000,20.00000,9.366235e-08,0.73979,4
350.02,248.4,     -0.28739,      5.20197,50.00000,20.00000,9.392974e-08,0.73979,4
350.031,249,     -0.28703,      5.17151,50.00000,20.00000,9.881634e-08,0.73978,4
350.026,249.6,     -0.28555,      5.17151,50.00000,20.00000,9.468333e-08,0.73979,4
350.026,250.2,     -0.28647,      5.14516,50.00000,20.00000,9.402577e-08,0.73979,4
350.03,250.8,     -0.28814,      5.11882,50.00000,20.00000,9.415214e-08,0.73978,4
350.027,251.4,     -0.28536,      5.07007,50.00000,20.00000,9.397600e-08,0.73979,4
350.022,252,     -0.28610,      5.04785,50.00000,20.00000,9.331902e-08,0.73979,4
350.018,252.6,     -0.28573,      5.02760,50.00000,20.00000,9.515546e-08,0.73980,4
350.017,253.2,     -0.28314,      4.97276,50.00000,20.00000,9.406518e-08,0.73980,4
350.03,253.8,     -0.28296,      4.95448,50.00000,20.00000,9.343945e-08,0.73978,4
350.022,254.4,     -0.28444,      4.88154,50.00000,20.00000,9.492212e-08,0.73979,4
350.023,255,     -0.28351,      4.88154,50.00000,20.00000,9.385820e-08,0.73979,4
350.047,255.6,     -0.28186,      4.87545,50.00000,20.00000,9.185500e-08,0.73977,4
350.036,256.2,     -0.28167,      4.82688,50.00000,20.00000,9.422645e-08,0.73978,4
350.034,256.8,     -0.28352,      4.82688,50.00000,20.00000,9.396507e-08,0.73978,4
350.028,257.4,     -0.28407,      4.77814,50.00000,20.00000,9.552528e-08,0.73979,4
350.035,258,     -0.28296,      4.75591,50.00000,20.00000,9.518115e-08,0.73978,4
350.042,258.6,     -0.28260,      4.73154,50.00000,20.00000,9.429288e-08,0.73977,4
350.047,259.2,     -0.28241,      4.73154,50.00000,20.00000,9.432348e-08,0.73977,4
350.04,259.8,     -0.28186,      4.68297,50.00000,20.00000,9.398111e-08,0.73977,4
350.033,260.4,     -0.28185,      4.67079,50.00000,20.00000,9.348064e-08,0.73978,4
350.035,261,     -0.28167,      4.62814,50.00000,20.00000,1.008231e-07,0.73978,4
350.021,261.6,     -0.28129,      4.61595,50.00000,20.00000,9.429877e-08,0.73979,4
350.021,262.2,     -0.27945,      4.59158,50.00000,20.00000,9.417394e-08,0.73979,4
350.022,262.8,     -0.27834,      4.56738,50.00000,20.00000,9.416885e-08,0.73979,4
350.032,263.4,     -0.27760,      4.51864,50.00000,20.00000,9.409718e-08,0.73978,4
350.022,264,     -0.27815,      4.49427,50.00000,20.00000,9.366879e-08,0.73979,4
350.021,264.6,     -0.27723,      4.50645,50.00000,20.00000,9.565988e-08,0.73979,4
350.019,265.2,     -0.27797,      4.48226,50.00000,20.00000,9.427891e-08,0.73979,4
350.021,265.8,     -0.27797,      4.41523,50.00000,20.00000,9.391973e-08,0.73979,4
350.018,266.4,     -0.27871,      4.43961,50.00000,20.00000,9.401706e-08,0.73980,4
350.019,267,     -0.27556,      4.39086,50.00000,20.00000,1.008054e-07,0.73979,4
350.032,267.6,     -0.27520,      4.36667,50.00000,20.00000,9.423109e-08,0.73978,4
350.021,268.2,     -0.27372,      4.34229,50.00000,20.00000,9.409899e-08,0.73979,4
350.031,268.8,     -0.27298,      4.34032,50.00000,20.00000,9.405350e-08,0.73978,4
350.026,269.4,     -0.27187,      4.29158,50.00000,20.00000,9.390240e-08,0.73979,4
350.038,270,     -0.27003,      4.27939,50.00000,20.00000,9.235414e-08,0.73978,4
350.041,270.6,     -0.27095,      4.25502,50.00000,20.00000,9.406023e-08,0.73977,4
350.039,271.2,     -0.27391,      4.25502,50.00000,20.00000,9.346682e-08,0.73978,4
350.025,271.8,     -0.27242,      4.20036,50.00000,20.00000,9.574608e-08,0.73979,4
350.042,272.4,     -0.26984,      4.19427,50.00000,20.00000,9.398485e-08,0.73977,4
350.037,273,     -0.27021,      4.18620,50.00000,20.00000,9.300164e-08,0.73978,4
350.035,273.6,     -0.27187,      4.14355,50.00000,20.00000,9.428773e-08,0.73978,4
350.045,274.2,     -0.27243,      4.14158,50.00000,20.00000,9.373932e-08,0.73977,4
350.051,274.8,     -0.27022,      4.11720,50.00000,20.00000,9.271054e-08,0.73976,4
350.032,275.4,     -0.27280,      4.09283,50.00000,20.00000,9.366082e-08,0.73978,4
350.027,276,     -0.27169,      4.07473,50.00000,20.00000,9.407549e-08,0.73979,4
350.032,276.6,     -0.27058,      4.05036,50.00000,20.00000,9.407197e-08,0.73978,4
350.017,277.2,     -0.27168,      4.00161,50.00000,20.00000,1.012277e-07,0.73980,4
350.024,277.8,     -0.26817,      4.00161,50.00000,20.00000,1.015730e-07,0.73979,4
350.025,278.4,     -0.26984,      3.97742,50.00000,20.00000,9.428388e-08,0.73979,4
350.029,279,     -0.26836,      3.92670,50.00000,20.00000,9.385324e-08,0.73978,4
350.025,279.6,     -0.26891,      3.94498,50.00000,20.00000,9.373033e-08,0.73979,4
350.028,280.2,     -0.26707,      3.92061,50.00000,20.00000,9.230032e-08,0.73979,4
350.021,280.8,     -0.26669,      3.85968,50.00000,20.00000,9.346745e-08,0.73979,4
350.028,281.4,     -0.26688,      3.84767,50.00000,20.00000,9.311782e-08,0.73979,4
350.031,282,     -0.26781,      3.83548,50.00000,20.00000,9.452456e-08,0.73978,4
352.201,282.6,      0.70707,      3.93280,50.00000,20.00000,9.323859e-08,0.73771,5
357.368,283.2,      1.92446,      4.20645,50.00000,20.00000,9.449567e-08,0.73278,5
362.394,283.8,      2.01525,      4.33011,50.00000,20.00000,9.338594e-08,0.72799,5
367.379,284.4,      2.04925,      4.37885,50.00000,20.00000,9.485237e-08,0.72325,5
372.997,285,      2.35929,      4.42742,50.00000,20.00000,9.348354e-08,0.71792,5
379.069,285.6,      2.64288,      4.50448,50.00000,20.00000,8.197388e-08,0.71217,5
385.298,286.2,      2.80326,      4.48011,50.00000,20.00000,9.429010e-08,0.70630,5
391.602,286.8,      2.93468,      4.43154,50.00000,20.00000,9.395492e-08,0.70039,5
397.986,287.4,      3.07208,      4.27939,50.00000,20.00000,9.376280e-08,0.69444,5
404.394,288,      3.21138,      4.06649,50.00000,20.00000,9.349889e-08,0.68850,5
410.788,288.6,      3.35324,      3.70161,50.00000,20.00000,9.463696e-08,0.68261,5
417.146,289.2,      3.50283,      3.23728,50.00000,20.00000,9.372425e-08,0.67680,5
423.476,289.8,      3.66867,      2.62312,50.00000,20.00000,9.309008e-08,0.67107,5
429.785,290.4,      3.84477,      1.98244,50.00000,20.00000,9.427323e-08,0.66540,5
436.029,291,      4.01950,      1.35591,50.00000,20.00000,9.362235e-08,0.65984,5
442.244,291.6,      4.19961,      0.77401,50.00000,20.00000,9.555656e-08,0.65437,5
448.444,292.2,      4.36122,      0.28943,50.00000,20.00000,9.417816e-08,0.64896,5
454.586,292.8,      4.52946,-5.716846e-02,50.00000,20.00000,9.588358e-08,0.64366,5
460.734,293.4,      4.67695,     -0.30860,50.00000,20.00000,9.733025e-08,0.63842,5
466.829,294,      4.76325,     -0.40591,50.00000,20.00000,9.464198e-08,0.63328,5
472.921,294.6,      4.81150,     -0.38154,50.00000,20.00000,9.454362e-08,0.62821,5
479.002,295.2,      4.85251,     -0.28423,50.00000,20.00000,9.408537e-08,0.62321,5
485.049,295.8,      4.87908,     -0.21129,50.00000,20.00000,9.569465e-08,0.61830,5
491.093,296.4,      4.90330,     -0.12419,50.00000,20.00000,9.367452e-08,0.61347,5
497.135,297,      4.92555,-3.691756e-02,50.00000,20.00000,9.489368e-08,0.60870,5
503.16,297.6,      4.93640, 3.602151e-02,50.00000,20.00000,9.289623e-08,0.60401,5
509.174,298.2,      4.94315, 8.476703e-02,50.00000,20.00000,9.425284e-08,0.59939,5
515.182,298.8,      4.94272,      0.15771,50.00000,20.00000,1.024340e-07,0.59485,5
521.198,299.4,      4.94453,      0.23065,50.00000,20.00000,1.018491e-07,0.59038,5
527.2,300,      4.93147,      0.30968,50.00000,20.00000,9.446972e-08,0.58598,5
533.204,300.6,      4.90777,      0.40699,50.00000,20.00000,9.432829e-08,0.58165,5
539.194,301.2,      4.87049,      0.48011,50.00000,20.00000,9.254101e-08,0.57740,5
545.187,301.8,      4.81873,      0.55305,50.00000,20.00000,9.418938e-08,0.57322,5
551.174,302.4,      4.75911,      0.57133,50.00000,20.00000,9.337124e-08,0.56911,5
557.177,303,      4.69257,      0.66254,50.00000,20.00000,9.439505e-08,0.56505,5
563.157,303.6,      4.60318,      0.73548,50.00000,20.00000,1.032630e-07,0.56109,5
569.157,304.2,      4.48950,      0.82670,50.00000,20.00000,9.478717e-08,0.55717,5
575.146,304.8,      4.35509,      0.83889,50.00000,20.00000,9.452857e-08,0.55334,5
581.148,305.4,      4.19098,      0.92401,50.00000,20.00000,9.285035e-08,0.54956,5
587.135,306,      3.99574,      0.97061,50.00000,20.00000,9.441272e-08,0.54585,5
593.124,306.6,      3.78175,      1.01935,50.00000,20.00000,9.752440e-08,0.54221,5
599.118,307.2,      3.51496,      1.06792,50.00000,20.00000,9.466622e-08,0.53863,5
605.111,307.8,      3.20001,      1.11667,50.00000,20.00000,9.704105e-08,0.53512,5
611.103,308.4,      2.83067,      1.16523,50.00000,20.00000,9.471302e-08,0.53166,5
617.106,309,      2.41225,      1.21398,50.00000,20.00000,9.341421e-08,0.52826,5
623.095,309.6,      1.92590,      1.23835,50.00000,20.00000,9.443841e-08,0.52493,5
629.105,310.2,      1.39677,      1.29910,50.00000,20.00000,9.577074e-08,0.52165,5
635.107,310.8,      0.81258,      1.34176,50.00000,20.00000,9.496524e-08,0.51842,5
641.1,311.4,      0.17169,      1.39032,50.00000,20.00000,9.520055e-08,0.51526,5
647.103,312,     -0.48028,      1.42688,50.00000,20.00000,9.471406e-08,0.51214,5
653.102,312.6,     -1.15570,      1.49373,50.00000,20.00000,9.454426e-08,0.50908,5
659.106,313.2,     -1.82695,      1.49982,50.00000,20.00000,9.728550e-08,0.50606,5
665.097,313.8,     -2.47501,      1.56057,50.00000,20.00000,9.273412e-08,0.50310,5
671.09,314.4,     -3.08207,      1.61344,50.00000,20.00000,9.493668e-08,0.50018,5
677.09,315,     -3.63601,      1.61344,50.00000,20.00000,9.688761e-08,0.49731,5
683.081,315.6,     -4.13405,      1.66398,50.00000,20.00000,9.949793e-08,0.49448,5
689.083,316.2,     -4.56937,      1.73710,50.00000,20.00000,9.322731e-08,0.49169,5
695.063,316.8,     -4.92023,      1.77348,50.00000,20.00000,9.151066e-08,0.48894,5
701.054,317.4,     -5.20330,      1.77957,50.00000,20.00000,9.455807e-08,0.48623,5
707.069,318,     -5.42847,      1.79785,50.00000,20.00000,9.675599e-08,0.48354,5
713.048,318.6,     -5.58764,      1.84659,50.00000,20.00000,9.482187e-08,0.48090,5
719.073,319.2,     -5.69413,      1.87688,50.00000,20.00000,9.365259e-08,0.47827,5
725.053,319.8,     -5.75465,      1.90735,50.00000,20.00000,9.329072e-08,0.47569,5
731.036,320.4,     -5.77651,      1.95609,50.00000,20.00000,9.489734e-08,0.47313,5
737.034,321,     -5.77659,      1.98029,50.00000,20.00000,9.748182e-08,0.47059,5
743.032,321.6,     -5.75391,      2.00466,50.00000,20.00000,9.665197e-08,0.46807,5
749.01,322.2,     -5.71331,      2.04122,50.00000,20.00000,9.591541e-08,0.46559,5
755.015,322.8,     -5.68400,      2.06541,50.00000,20.00000,9.441257e-08,0.46310,5
761.01,323.4,     -5.64849,      2.08978,50.00000,20.00000,1.003811e-07,0.46064,5
766.995,324,     -5.62490,      2.11416,50.00000,20.00000,9.689475e-08,0.45820,5
772.998,324.6,     -5.59741,      2.13853,50.00000,20.00000,9.748307e-08,0.45576,5
778.984,325.2,     -5.58358,      2.15878,50.00000,20.00000,9.952667e-08,0.45334,5
784.979,325.8,     -5.59138,      2.19516,50.00000,20.00000,8.269809e-08,0.45092,5
790.973,326.4,     -5.60741,      2.21344,50.00000,20.00000,9.467226e-08,0.44851,5
795.967,326.9,     -5.62418,      2.23891,50.00000,20.00000,9.666281e-08,0.44650,5