File: data/TGA/ExpDat_2024_03_13_Styrofoam-SCF3_350C_isotherm_1pt.csv
#EXPORTTYPE:                 ,DATA SINGLE
#FILE:                       ,2024_03_13_Styrofoam-SCF3_350C_isotherm_1pt_min_SCB_with_100C_stabilization.ngb-ss5
#FORMAT:                     ,NETZSCH5
#FTYPE:                      ,ANSI
#IDENTITY:                   ,Styrofoam-SCF3
#DECIMAL:                    ,POINT
#SEPARATOR:                  ,COMMA
#MTYPE:                      ,TG
#INSTRUMENT:                 ,NETZSCH STA 449F5
#PROJECT:                    ,005a-E
#DATE/TIME:                  ,3/13/2024 1:05:54 PM (UTC-4)
#CORR. FILE:                 ,
#TEMPCAL:                    ,28-06-2023 13:26
#SENSITIVITY:                ,28-06-2023 13:53
#LABORATORY:                 ,Tran/AAG
#OPERATOR:                   ,Stanley
#REMARK:                     ,
#SAMPLE:                     ,005a-F4
#SAMPLE MASS /mg:            ,5.25
#MATERIAL:                   ,
#REFERENCE:                  ,
#REFERENCE MASS /mg:         ,0
#TYPE OF CRUCIBLE:           ,Al2O3 85 µl, open
#SAMPLE CRUCIBLE MASS /mg:   ,0
#REFERENCE CRUCIBLE MASS /mg:,0
#DSC RANGE /µV:              ,5000
#TG RANGE /mg:               ,35000
#TAU-R:                      ,---
#CORR. CODE:                 ,000
#EXO:                        ,-1
#RANGE:                      ,30°C....800°C/0.0....10.0K/min
#SEGMENT:                    ,S1-5/5
#SEG. 1:                     ,30°C/10.0(K/min)/100°C
#SEG. 2:                     ,100°C/00:10/100°C
#SEG. 3:                     ,100°C/10.0(K/min)/350°C
#SEG. 4:                     ,350°C/04:00/350°C
#SEG. 5:                     ,350°C/10.0(K/min)/800°C

##Temp./°C,Time/min,Mass/%,Segment
 27.86000,  0.00000,    100,1
 29.99000,  1.00000,    100.483,1
 34.66900,  2.00000,     97.00476,1
 41.39300,  3.00000,     97.81276,1
 49.90400,  4.00000,     98.45067,1
 60.30300,  5.00000,     98.92686,1
 71.93700,  6.00000,     99.19181,1
 84.26229,  7.00000,     99.44573,2
 94.91595,  8.00000,     98.85356,2
101.355,  9.00000,     97.52110,2
105.545, 10.00000,     96.31156,2
108.35, 11.00000,     95.04575,2
109.754, 12.00000,     93.77360,2
109.939, 13.00000,     92.73396,2
109.503, 14.00000,     91.87891,2
108.615, 15.00000,     91.21967,2
107.483, 16.00000,     90.63118,2
106.264, 17.00000,     90.15867,3
106.696, 18.00000,     90.67598,3
111.287, 19.00000,     91.66705,3
117.804, 20.00000,     92.20649,3
126.332, 21.00000,     92.71010,3
136.668, 22.00000,     93.07638,3
148.032, 23.00000,     93.22947,3
159.914, 24.00000,     93.25086,3
171.903, 25.00000,     93.11943,3
183.794, 26.00000,     92.90610,3
195.457, 27.00000,     92.67229,3
206.802, 28.00000,     92.43429,3
217.797, 29.00000,     92.19295,3
228.538, 30.00000,     91.91718,3
239.011, 31.00000,     91.66691,3
249.307, 32.00000,     91.34792,3
259.477, 33.00000,     91.03941,3
269.553, 34.00000,     90.72374,3
279.554, 35.00000,     90.22994,3
289.522, 36.00000,     89.59858,3
299.431, 37.00000,     88.76864,3
309.324, 38.00000,     87.69674,3
319.202, 39.00000,     86.44138,3
329.072, 40.00000,     84.81577,3
338.965, 41.00000,     82.91610,3
348.834, 42.00000,     80.42820,4
352.668, 43.00000,     76.89092,4
353.821, 44.00000,     73.26902,4
354.58, 45.00000,     69.64628,4
354.35, 46.00000,     66.18526,4
353.908, 47.00000,     62.82281,4
353.363, 48.00000,     59.70233,4
352.805, 49.00000,     56.79097,4
352.314, 50.00000,     54.10154,4
351.887, 51.00000,     51.61694,4
351.524, 52.00000,     49.23473,4
351.232, 53.00000,     47.07824,4
351.002, 54.00000,     45.04031,4
350.79, 55.00000,     43.16323,4
350.633, 56.00000,     41.36284,4
350.52, 57.00000,     39.63294,4
350.411, 58.00000,     38.04984,4
350.329, 59.00000,     36.53282,4
350.272, 60.00000,     35.08933,4
350.201, 61.00000,     33.76819,4
350.187, 62.00000,     32.45256,4
350.135, 63.00000,     31.22259,4
350.114, 64.00000,     30.04019,4
350.088, 65.00000,     28.94496,4
350.078, 66.00000,     27.88766,4
350.07, 67.00000,     26.88071,4
350.051, 68.00000,     25.89803,4
350.04, 69.00000,     25.02590,4
350.033, 70.00000,     24.11667,4
350.036, 71.00000,     23.29336,4
350.028, 72.00000,     22.54132,4
350.033, 73.00000,     21.75070,4
350.018, 74.00000,     20.99820,4
350.027, 75.00000,     20.30025,4
350.027, 76.00000,     19.61556,4
350.024, 77.00000,     18.92553,4
350.024, 78.00000,     18.32442,4
350.009, 79.00000,     17.71039,4
350.028, 80.00000,     17.13277,4
350.028, 81.00000,     16.58981,4
350.016, 82.00000,     16.03371,4
350.026, 83.00000,     15.55592,4
350.012, 84.00000,     15.03798,4
350.028, 85.00000,     14.54267,4
350.026, 86.00000,     14.03407,4
350.028, 87.00000,     13.60305,4
350.038, 88.00000,     13.16279,4
350.025, 89.00000,     12.72608,4
350.016, 90.00000,     12.37257,4
350.025, 91.00000,     11.97389,4
350.032, 92.00000,     11.56903,4
350.025, 93.00000,     11.19390,4
350.029, 94.00000,     10.87714,4
350.034, 95.00000,     10.53015,4
350.027, 96.00000,     10.16171,4
350.045, 97.00000,      9.84495,4
350.029, 98.00000,      9.52590,4
350.029, 99.00000,      9.24368,4
350.031,100,      8.95714,4
350.042,101,      8.63829,4
350.045,102,      8.35162,4
350.047,103,      8.07810,4
350.039,104,      7.84533,4
350.038,105,      7.57371,4
350.033,106,      7.31295,4
350.023,107,      7.04590,4
350.034,108,      6.83244,4
350.041,109,      6.61280,4
350.026,110,      6.35587,4
350.022,111,      6.15810,4
350.023,112,      5.94895,4
350.037,113,      5.74210,4
350.02,114,      5.51808,4
350.035,115,      5.33695,4
350.024,116,      5.11295,4
350.041,117,      4.92563,4
350.042,118,      4.75086,4
350.033,119,      4.58705,4
350.03,120,      4.42762,4
350.032,121,      4.23352,4
350.029,122,      4.08514,4
350.022,123,      3.92990,4
350.016,124,      3.75314,4
350.023,125,      3.59162,4
350.027,126,      3.43638,4
350.037,127,      3.30286,4
350.031,128,      3.15848,4
350.027,129,      3.02914,4
350.019,130,      2.87181,4
350.026,131,      2.74267,4
350.025,132,      2.59390,4
350.027,133,      2.46457,4
350.037,134,      2.33314,4
350.024,135,      2.25123,4
350.019,136,      2.12190,4
350.024,137,      2.01897,4
350.022,138,      1.90628,4
350.02,139,      1.78590,4
350.036,140,      1.70400,4
350.007,141,      1.54876,4
350.025,142,      1.44944,4
350.024,143,      1.34629,4
350.021,144,      1.26857,4
350.03,145,      1.16305,4
350.037,146,      1.03160,4
350.031,147,      0.97771,4
350.033,148,      0.89810,4
350.04,149,      0.80114,4
350.031,150,      0.69333,4
350.037,151,      0.66743,4
350.03,152,      0.55333,4
350.04,153,      0.44762,4
350.029,154,      0.39371,4
350.031,155,      0.34210,4
350.024,156,      0.26461,4
350.025,157,      0.18686,4
350.029,158,      0.11588,4
350.028,159, 2.533193e-02,4
350.014,160,-2.667043e-03,4
350.019,161,     -0.10838,4
350.022,162,     -0.14234,4
350.036,163,     -0.21390,4
350.032,164,     -0.25277,4
350.018,165,     -0.33029,4
350.027,166,     -0.40781,4
350.019,167,     -0.45962,4
350.022,168,     -0.48530,4
350.028,169,     -0.55762,4
350.029,170,     -0.61028,4
350.031,171,     -0.64914,4
350.025,172,     -0.72457,4
350.039,173,     -0.75695,4
350.035,174,     -0.78911,4
350.026,175,     -0.83447,4
350.037,176,     -0.86038,4
350.03,177,     -0.93143,4
350.022,178,     -0.95733,4
350.03,179,     -1.04133,4
350.026,180,     -1.05040,4
350.03,181,     -1.07577,4
350.036,182,     -1.15611,4
350.034,183,     -1.18133,4
350.028,184,     -1.23314,4
350.032,185,     -1.23314,4
350.027,186,     -1.31295,4
350.03,187,     -1.33206,4
350.023,188,     -1.34743,4
350.038,189,     -1.39467,4
350.034,190,     -1.40520,4
350.021,191,     -1.44648,4
350.025,192,     -1.48053,4
350.023,193,     -1.50686,4
350.035,194,     -1.52838,4
350.038,195,     -1.55429,4
350.025,196,     -1.60800,4
350.022,197,     -1.60800,4
350.038,198,     -1.66419,4
350.03,199,     -1.68990,4
350.034,200,     -1.68571,4
350.027,201,     -1.71840,4
350.024,202,     -1.72876,4
350.016,203,     -1.78038,4
350.018,204,     -1.78038,4
350.031,205,     -1.81923,4
350.034,206,     -1.83867,4
350.025,207,     -1.82571,4
350.026,208,     -1.88381,4
350.02,209,     -1.89676,4
350.026,210,     -1.91619,4
350.034,211,     -1.94402,4
350.035,212,     -1.93771,4
350.031,213,     -1.94419,4
350.041,214,     -1.96800,4
350.038,215,     -1.97010,4
350.031,216,     -2.00248,4
350.029,217,     -2.00667,4
350.032,218,     -2.06293,4
350.03,219,     -2.05200,4
350.033,220,     -2.08438,4
350.035,221,     -2.07790,4
350.035,222,     -2.09943,4
350.026,223,     -2.10362,4
350.028,224,     -2.10800,4
350.018,225,     -2.13390,4
350.03,226,     -2.13390,4
350.03,227,     -2.15981,4
350.032,228,     -2.16190,4
350.024,229,     -2.14895,4
350.023,230,     -2.15543,4
350.031,231,     -2.20288,4
350.045,232,     -2.19638,4
350.023,233,     -2.19638,4
350.033,234,     -2.17048,4
350.035,235,     -2.19638,4
350.038,236,     -2.22229,4
350.038,237,     -2.22876,4
350.038,238,     -2.23505,4
350.035,239,     -2.23576,4
350.032,240,     -2.23733,4
350.038,241,     -2.24381,4
350.032,242,     -2.25564,4
350.04,243,     -2.25038,4
350.038,244,     -2.27599,4
350.043,245,     -2.28038,4
350.027,246,     -2.25448,4
350.03,247,     -2.28038,4
350.039,248,     -2.26046,4
350.027,249,     -2.28735,4
350.021,250,     -2.27600,4
350.028,251,     -2.26324,4
350.036,252,     -2.28248,4
350.033,253,     -2.29968,4
350.027,254,     -2.27390,4
350.022,255,     -2.28686,4
350.037,256,     -2.28895,4
350.031,257,     -2.29124,4
350.031,258,     -2.31695,4
350.03,259,     -2.30419,4
350.034,260,     -2.28477,4
350.037,261,     -2.32101,4
350.042,262,     -2.32781,4
350.037,263,     -2.30190,4
350.04,264,     -2.32558,4
350.041,265,     -2.31276,4
350.034,266,     -2.31486,4
350.037,267,     -2.30191,4
350.034,268,     -2.31008,4
350.033,269,     -2.33176,4
350.044,270,     -2.34933,4
350.038,271,     -2.35790,4
350.03,272,     -2.35790,4
350.026,273,     -2.34607,4
350.036,274,     -2.37086,4
350.027,275,     -2.37086,4
350.03,276,     -2.34495,4
350.035,277,     -2.34461,4
350.044,278,     -2.35030,4
350.029,279,     -2.34286,4
350.034,280,     -2.34286,4
350.045,281,     -2.34495,4
349.992,282,     -2.34294,5
356.293,283,     -2.00882,5
364.697,284,     -1.69762,5
373.723,285,     -1.53764,5
383.871,286,     -1.33018,5
394.275,287,     -1.14595,5
404.79,288,     -0.95923,5
415.313,289,     -0.82708,5
425.747,290,     -0.69638,5
436.118,291,     -0.54487,5
446.393,292,     -0.45706,5
456.59,293,     -0.32294,5
466.748,294,     -0.24121,5
476.848,295,     -0.12927,5
486.916,296,-2.146384e-02,5
496.972,297, 7.633944e-02,5
506.99,298,      0.18411,5
517.007,299,      0.31702,5
526.998,300,      0.42577,5
536.995,301,      0.53411,5
546.976,302,      0.63763,5
556.962,303,      0.77417,5
566.947,304,      0.86061,5
576.936,305,      0.99175,5
586.908,306,      1.07441,5
596.904,307,      1.17977,5
606.901,308,      1.25654,5
616.899,309,      1.33730,5
626.915,310,      1.41727,5
636.897,311,      1.52318,5
646.9,312,      1.57569,5
656.901,313,      1.68486,5
666.89,314,      1.73693,5
676.891,315,      1.80862,5
686.903,316,      1.89397,5
696.911,317,      1.93944,5
706.922,318,      2.00417,5
716.93,319,      2.08208,5
726.924,320,      2.14757,5
736.939,321,      2.22302,5
746.953,322,      2.27573,5
756.953,323,      2.32832,5
766.964,324,      2.38472,5
776.955,325,      2.43762,5
786.951,326,      2.47649,5